onset	duration	trial_type	image_type	image_num	response	reaction_time	trial_num	onset_orig	duration_orig	trial_type_orig	rating_par_orig
1.00434039900028	5	attend	neutral	111	n/a	n/a	1	1.0043	5	att_neut	n/a
7.01191045499945	3	rate	n/a	n/a	98	0.678827642001124	1	7.0119	3	rating_par	-0.5
15.0111059629999	5	attend	negative	17	n/a	n/a	2	15.0111	5	att_neg	n/a
21.0020505659995	3	rate	n/a	n/a	114	1.55966061400068	2	21.0021	3	rating_par	2.5
29.0178244599992	5	attend	negative	14	n/a	n/a	3	29.0178	5	att_neg	n/a
36.0047196399992	3	rate	n/a	n/a	103	0.598753538000892	3	36.0047	3	rating_par	1.5
41.0165881849989	5	suppress	negative	40	n/a	n/a	4	41.0166	5	suppr_neg	n/a
48.0033940239991	3	rate	n/a	n/a	98	0.334049749000769	4	48.0034	3	rating_par	-0.5
53.0152381089993	5	suppress	negative	36	n/a	n/a	5	53.0152	5	suppr_neg	n/a
61.0145955669996	3	rate	n/a	n/a	98	0.586550340000031	5	61.0146	3	rating_par	-0.5
69.0137941819994	5	attend	negative	10	n/a	n/a	6	69.0138	5	att_neg	n/a
76.0171972539993	3	rate	n/a	n/a	98	0.351522442000714	6	76.0172	3	rating_par	-0.5
83.0039851849997	5	suppress	negative	23	n/a	n/a	7	83.004	5	suppr_neg	n/a
89.0115728780002	3	rate	n/a	n/a	98	0.599578112000017	7	89.0116	3	rating_par	-0.5
100.014702367	5	attend	neutral	112	n/a	n/a	8	100.0147	5	att_neut	n/a
106.005676160999	3	rate	n/a	n/a	98	0.612613510000301	8	106.0057	3	rating_par	-0.5
111.017702306999	5	attend	neutral	113	n/a	n/a	9	111.0177	5	att_neut	n/a
117.008819698	3	rate	n/a	n/a	98	0.760275484999511	9	117.0088	3	rating_par	-0.5
121.008375698	5	suppress	negative	27	n/a	n/a	10	121.0084	5	suppr_neg	n/a
127.015909251	3	rate	n/a	n/a	121	0.992833331998554	10	127.0159	3	rating_par	0.5
139.014765243999	5	attend	negative	11	n/a	n/a	11	139.0148	5	att_neg	n/a
146.001602508	3	rate	n/a	n/a	121	0.600471226998707	11	146.0016	3	rating_par	0.5
150.017794985	5	attend	neutral	117	n/a	n/a	12	150.0178	5	att_neut	n/a
157.004582612	3	rate	n/a	n/a	98	0.299928133999856	12	157.0046	3	rating_par	-0.5
163.012193458	5	suppress	negative	39	n/a	n/a	13	163.0122	5	suppr_neg	n/a
171.011468758999	3	rate	n/a	n/a	98	0.301389696000115	13	171.0115	3	rating_par	-0.5
176.006885998	5	attend	neutral	101	n/a	n/a	14	176.0069	5	att_neut	n/a
183.010164077999	3	rate	n/a	n/a	98	0.681812914999682	14	183.0102	3	rating_par	-0.5
188.005547899	5	attend	neutral	120	n/a	n/a	15	188.0055	5	att_neut	n/a
196.004544428	3	rate	n/a	n/a	98	0.574414765998881	15	196.0045	3	rating_par	-0.5
201.016701298	5	attend	negative	19	n/a	n/a	16	201.0167	5	att_neg	n/a
208.003532393999	3	rate	n/a	n/a	121	0.447943934999785	16	208.0035	3	rating_par	0.5
212.003114580999	5	attend	neutral	106	n/a	n/a	17	212.0031	5	att_neut	n/a
219.006524344999	3	rate	n/a	n/a	98	0.722675472001356	17	219.0065	3	rating_par	-0.5
225.014216173	5	attend	negative	4	n/a	n/a	18	225.0142	5	att_neg	n/a
233.013379636001	3	rate	n/a	n/a	114	0.339688301999558	18	233.0134	3	rating_par	2.5
240.016870150999	5	attend	neutral	104	n/a	n/a	19	240.0169	5	att_neut	n/a
247.003647948999	3	rate	n/a	n/a	98	0.389294313001301	19	247.0036	3	rating_par	-0.5
252.015611974999	5	suppress	negative	32	n/a	n/a	20	252.0156	5	suppr_neg	n/a
259.002428288999	3	rate	n/a	n/a	121	0.351991281000664	20	259.0024	3	rating_par	0.5
263.001955812	5	attend	negative	7	n/a	n/a	21	263.002	5	att_neg	n/a
270.005381450999	3	rate	n/a	n/a	103	0.293042463999882	21	270.0054	3	rating_par	1.5
276.013071928999	5	attend	negative	8	n/a	n/a	22	276.0131	5	att_neg	n/a
285.008031137	3	rate	n/a	n/a	98	0.338771501999872	22	285.008	3	rating_par	-0.5
292.011381443001	5	attend	neutral	105	n/a	n/a	23	292.0114	5	att_neut	n/a
301.006161343999	3	rate	n/a	n/a	98	0.58007140600057	23	301.0062	3	rating_par	-0.5
307.014050025	5	suppress	negative	34	n/a	n/a	24	307.0141	5	suppr_neg	n/a
314.001173122999	3	rate	n/a	n/a	98	1.12109313100154	24	314.0012	3	rating_par	-0.5
319.012890295	5	suppress	negative	33	n/a	n/a	25	319.0129	5	suppr_neg	n/a
325.003925014	3	rate	n/a	n/a	98	2.42278917200019	25	325.0039	3	rating_par	-0.5
332.007310045999	5	suppress	negative	29	n/a	n/a	26	332.0073	5	suppr_neg	n/a
339.010786958999	3	rate	n/a	n/a	121	0.494366417000492	26	339.0108	3	rating_par	0.5
344.006106823999	5	suppress	negative	28	n/a	n/a	27	344.0061	5	suppr_neg	n/a
351.009492837	3	rate	n/a	n/a	98	0.463370260999	27	351.0095	3	rating_par	-0.5
355.009089962999	5	attend	negative	15	n/a	n/a	28	355.0091	5	att_neg	n/a
361.016714760999	3	rate	n/a	n/a	98	0.344302024999706	28	361.0167	3	rating_par	-0.5
365.016328885	5	attend	neutral	115	n/a	n/a	29	365.0163	5	att_neut	n/a
373.015565838999	3	rate	n/a	n/a	98	0.617150371999742	29	373.0156	3	rating_par	-0.5
381.014698429999	5	attend	negative	20	n/a	n/a	30	381.0147	5	att_neg	n/a
387.005910377	3	rate	n/a	n/a	98	1.25128622800003	30	387.0059	3	rating_par	-0.5
