onset	duration	trial_type	image_type	image_num	response	reaction_time	trial_num	onset_orig	duration_orig	trial_type_orig	rating_par_orig
1.01177221999978	5	attend	neutral	87	n/a	n/a	1	1.0118	5	att_neut	n/a
7.00280793099978	3	rate	n/a	n/a	98	1.11535072100014	1	7.0028	3	rating_par	-0.7333
15.0020421999998	5	attend	negative	71	n/a	n/a	2	15.002	5	att_neg	n/a
21.0097729079998	3	rate	n/a	n/a	103	1.81845784200004	2	21.0098	3	rating_par	1.2667
29.0088532039999	5	attend	negative	77	n/a	n/a	3	29.0089	5	att_neg	n/a
36.0123868209998	3	rate	n/a	n/a	103	1.05423915200004	3	36.0124	3	rating_par	1.2667
41.0076588129998	5	suppress	negative	15	n/a	n/a	4	41.0077	5	suppr_neg	n/a
48.0111231579999	3	rate	n/a	n/a	98	0.94361422299994	4	48.0111	3	rating_par	-0.7333
53.006430101	5	suppress	negative	5	n/a	n/a	5	53.0064	5	suppr_neg	n/a
61.0055283949998	3	rate	n/a	n/a	121	0.628547733000005	5	61.0055	3	rating_par	0.2667
69.0047603379999	5	attend	negative	64	n/a	n/a	6	69.0048	5	att_neg	n/a
76.0081916279998	3	rate	n/a	n/a	114	0.88422502200001	6	76.0082	3	rating_par	2.2667
83.0116087179999	5	suppress	negative	3	n/a	n/a	7	83.0116	5	suppr_neg	n/a
89.0027682729999	3	rate	n/a	n/a	98	0.914587350999909	7	89.0028	3	rating_par	-0.7333
100.005685069	5	attend	neutral	97	n/a	n/a	8	100.0057	5	att_neut	n/a
106.013415465	3	rate	n/a	n/a	98	0.910941880999872	8	106.0134	3	rating_par	-0.7333
111.008751135	5	attend	neutral	93	n/a	n/a	9	111.0088	5	att_neut	n/a
117.016461912	3	rate	n/a	n/a	98	0.628053338999962	9	117.0165	3	rating_par	-0.7333
121.016085676	5	suppress	negative	19	n/a	n/a	10	121.0161	5	suppr_neg	n/a
127.006929814	3	rate	n/a	n/a	98	0.548292382	10	127.0069	3	rating_par	-0.7333
139.005812959	5	attend	negative	68	n/a	n/a	11	139.0058	5	att_neg	n/a
146.009330258	3	rate	n/a	n/a	121	0.96375127400006	11	146.0093	3	rating_par	0.2667
150.008872301	5	attend	neutral	90	n/a	n/a	12	150.0089	5	att_neut	n/a
157.012094056	3	rate	n/a	n/a	98	0.704335827000023	12	157.0121	3	rating_par	-0.7333
163.003227229	5	suppress	negative	2	n/a	n/a	13	163.0032	5	suppr_neg	n/a
171.002586602	3	rate	n/a	n/a	121	1.30536631600012	13	171.0026	3	rating_par	0.2667
176.014535185	5	attend	neutral	84	n/a	n/a	14	176.0145	5	att_neut	n/a
183.001307232	3	rate	n/a	n/a	98	0.865014470000006	14	183.0013	3	rating_par	-0.7333
188.013254832	5	attend	neutral	100	n/a	n/a	15	188.0133	5	att_neut	n/a
196.012491132	3	rate	n/a	n/a	98	0.768503237000004	15	196.0125	3	rating_par	-0.7333
201.007786126	5	attend	negative	65	n/a	n/a	16	201.0078	5	att_neg	n/a
208.011147475	3	rate	n/a	n/a	98	0.872580895000056	16	208.0111	3	rating_par	-0.7333
212.010768924	5	attend	neutral	83	n/a	n/a	17	212.0108	5	att_neut	n/a
219.014082314	3	rate	n/a	n/a	98	0.796194920000062	17	219.0141	3	rating_par	-0.7333
225.005342977	5	attend	negative	69	n/a	n/a	18	225.0053	5	att_neg	n/a
233.004516032	3	rate	n/a	n/a	103	0.720189421999976	18	233.0045	3	rating_par	1.2667
240.007820824	5	attend	neutral	92	n/a	n/a	19	240.0078	5	att_neut	n/a
247.011298791	3	rate	n/a	n/a	98	1.00744759500003	19	247.0113	3	rating_par	-0.7333
252.00676283	5	suppress	negative	10	n/a	n/a	20	252.0068	5	suppr_neg	n/a
259.010091981	3	rate	n/a	n/a	121	0.897812061999957	20	259.0101	3	rating_par	0.2667
263.009874259	5	attend	negative	75	n/a	n/a	21	263.0099	5	att_neg	n/a
270.013061831	3	rate	n/a	n/a	114	0.663801126999942	21	270.0131	3	rating_par	2.2667
276.004037165	5	attend	negative	70	n/a	n/a	22	276.004	5	att_neg	n/a
285.015667735	3	rate	n/a	n/a	114	0.546244262000073	22	285.0157	3	rating_par	2.2667
292.002543146	5	attend	neutral	95	n/a	n/a	23	292.0025	5	att_neut	n/a
301.014066089	3	rate	n/a	n/a	98	0.685228840000036	23	301.0141	3	rating_par	-0.7333
307.005138573	5	suppress	negative	14	n/a	n/a	24	307.0051	5	suppr_neg	n/a
314.008472254	3	rate	n/a	n/a	98	0.410902346000057	24	314.0085	3	rating_par	-0.7333
319.003787794	5	suppress	negative	16	n/a	n/a	25	319.0038	5	suppr_neg	n/a
325.011610585	3	rate	n/a	n/a	98	0.807787706999989	25	325.0116	3	rating_par	-0.7333
332.014946057	5	suppress	negative	1	n/a	n/a	26	332.0149	5	suppr_neg	n/a
339.00181931	3	rate	n/a	n/a	98	0.552308245999939	26	339.0018	3	rating_par	-0.7333
344.013739754	5	suppress	negative	11	n/a	n/a	27	344.0137	5	suppr_neg	n/a
351.017119167	3	rate	n/a	n/a	121	1.89059147299986	27	351.0171	3	rating_par	0.2667
355.016820929	5	attend	negative	62	n/a	n/a	28	355.0168	5	att_neg	n/a
361.007870617	3	rate	n/a	n/a	121	0.979158811999923	28	361.0079	3	rating_par	0.2667
365.007500198	5	attend	neutral	88	n/a	n/a	29	365.0075	5	att_neut	n/a
373.006665908	3	rate	n/a	n/a	98	0.820474011999977	29	373.0067	3	rating_par	-0.7333
381.005726786	5	attend	negative	74	n/a	n/a	30	381.0057	5	att_neg	n/a
387.0135455	3	rate	n/a	n/a	121	0.693709099999978	30	387.0135	3	rating_par	0.2667
