onset	duration	trial_type	image_type	image_num	response	reaction_time	trial_num	onset_orig	duration_orig	trial_type_orig	rating_par_orig
1.01278728999978	5	attend	negative	57	n/a	n/a	1	1.0128	5	att_neg	n/a
8.01619845699997	3	rate	n/a	n/a	98	1.51903729899959	1	8.0162	3	rating_par	-0.9333
13.011662854	5	attend	neutral	108	n/a	n/a	2	13.0117	5	att_neut	n/a
19.0025581769996	3	rate	n/a	n/a	98	0.624792049000007	2	19.0026	3	rating_par	-0.9333
29.0098552499999	5	attend	negative	60	n/a	n/a	3	29.0099	5	att_neg	n/a
37.0090586229999	3	rate	n/a	n/a	103	1.22045716100001	3	37.0091	3	rating_par	1.0667
43.0166686429998	5	suppress	negative	75	n/a	n/a	4	43.0167	5	suppr_neg	n/a
49.0078885869998	3	rate	n/a	n/a	121	1.80625388299995	4	49.0079	3	rating_par	0.0667
53.007442827	5	suppress	negative	64	n/a	n/a	5	53.0074	5	suppr_neg	n/a
60.010787488	3	rate	n/a	n/a	98	0.931859635999899	5	60.0108	3	rating_par	-0.9333
65.006161715	5	suppress	negative	76	n/a	n/a	6	65.0062	5	suppr_neg	n/a
71.0138894339998	3	rate	n/a	n/a	121	1.0930995839999	6	71.0139	3	rating_par	0.0667
77.0049581249996	5	suppress	negative	67	n/a	n/a	7	77.005	5	suppr_neg	n/a
84.0083948749998	3	rate	n/a	n/a	103	0.646016280999902	7	84.0084	3	rating_par	1.0667
89.003643689	5	attend	neutral	101	n/a	n/a	8	89.0036	5	att_neut	n/a
95.0113930749999	3	rate	n/a	n/a	98	0.919447497999954	8	95.0114	3	rating_par	-0.9333
99.01093352	5	attend	negative	47	n/a	n/a	9	99.0109	5	att_neg	n/a
105.002083364	3	rate	n/a	n/a	121	1.45706729700032	9	105.0021	3	rating_par	0.0667
111.009759823	5	attend	negative	53	n/a	n/a	10	111.0098	5	att_neg	n/a
119.00893592	3	rate	n/a	n/a	114	0.761769275000006	10	119.0089	3	rating_par	2.0667
127.008112106	5	suppress	negative	71	n/a	n/a	11	127.0081	5	suppr_neg	n/a
134.01158128	3	rate	n/a	n/a	103	0.463355978999971	11	134.0116	3	rating_par	1.0667
141.014946886	5	attend	neutral	119	n/a	n/a	12	141.0149	5	att_neut	n/a
147.005988545	3	rate	n/a	n/a	98	0.592604629000107	12	147.006	3	rating_par	-0.9333
151.005585596	5	attend	negative	44	n/a	n/a	13	151.0056	5	att_neg	n/a
159.004755419	3	rate	n/a	n/a	114	0.559337508000226	13	159.0048	3	rating_par	2.0667
170.007759013	5	attend	neutral	114	n/a	n/a	14	170.0078	5	att_neut	n/a
177.011290569	3	rate	n/a	n/a	98	0.657038383999861	14	177.0113	3	rating_par	-0.9333
183.002341207	5	attend	negative	54	n/a	n/a	15	183.0023	5	att_neg	n/a
190.005682502	3	rate	n/a	n/a	121	1.24803986999996	15	190.0057	3	rating_par	0.0667
194.005357324	5	attend	neutral	105	n/a	n/a	16	194.0054	5	att_neut	n/a
201.00867025	3	rate	n/a	n/a	98	0.553778178999892	16	201.0087	3	rating_par	-0.9333
205.00824567	5	attend	neutral	118	n/a	n/a	17	205.0082	5	att_neut	n/a
212.011770275	3	rate	n/a	n/a	98	0.657082302999697	17	212.0118	3	rating_par	-0.9333
217.006916079	5	suppress	negative	66	n/a	n/a	18	217.0069	5	suppr_neg	n/a
223.014769595	3	rate	n/a	n/a	121	1.42416942499995	18	223.0148	3	rating_par	0.0667
233.005390021	5	attend	neutral	107	n/a	n/a	19	233.0054	5	att_neut	n/a
241.004486169	3	rate	n/a	n/a	98	0.638335392000045	19	241.0045	3	rating_par	-0.9333
248.008062749	5	attend	negative	56	n/a	n/a	20	248.0081	5	att_neg	n/a
254.015690495	3	rate	n/a	n/a	103	0.524496263999936	20	254.0157	3	rating_par	1.0667
259.011141772	5	suppress	negative	69	n/a	n/a	21	259.0111	5	suppr_neg	n/a
266.014524205	3	rate	n/a	n/a	121	1.79048007099982	21	266.0145	3	rating_par	0.0667
272.005554273	5	attend	neutral	120	n/a	n/a	22	272.0056	5	att_neut	n/a
280.004743643	3	rate	n/a	n/a	98	0.824203114999818	22	280.0047	3	rating_par	-0.9333
285.016689724	5	attend	neutral	111	n/a	n/a	23	285.0167	5	att_neut	n/a
292.00342198	3	rate	n/a	n/a	98	0.807805937000012	23	292.0034	3	rating_par	-0.9333
297.015439375	5	suppress	negative	73	n/a	n/a	24	297.0154	5	suppr_neg	n/a
305.014553011	3	rate	n/a	n/a	103	1.19643156599977	24	305.0146	3	rating_par	1.0667
309.014343895	5	attend	negative	55	n/a	n/a	25	309.0143	5	att_neg	n/a
316.000997882	3	rate	n/a	n/a	121	1.95463394699982	25	316.001	3	rating_par	0.0667
320.017249674	5	suppress	negative	80	n/a	n/a	26	320.0172	5	suppr_neg	n/a
326.008233878	3	rate	n/a	n/a	98	1.14861281499998	26	326.0082	3	rating_par	-0.9333
339.002794397	5	suppress	negative	72	n/a	n/a	27	339.0028	5	suppr_neg	n/a
347.001923093	3	rate	n/a	n/a	121	1.69216836400028	27	347.0019	3	rating_par	0.0667
353.009694213	5	attend	negative	58	n/a	n/a	28	353.0097	5	att_neg	n/a
362.004519282	3	rate	n/a	n/a	121	0.776533270000073	28	362.0045	3	rating_par	0.0667
367.016585237	5	attend	negative	45	n/a	n/a	29	367.0166	5	att_neg	n/a
375.015641149	3	rate	n/a	n/a	114	0.716992492999907	29	375.0156	3	rating_par	2.0667
380.010925672	5	attend	neutral	110	n/a	n/a	30	380.0109	5	att_neut	n/a
386.002086842	3	rate	n/a	n/a	98	0.779488261000097	30	386.0021	3	rating_par	-0.9333
