onset	duration	trial_type	image_type	image_num	response	reaction_time	trial_num	onset_orig	duration_orig	trial_type_orig	rating_par_orig	subject	run	phase	run_onset
1.015350397	5	attend	neutral	87	n/a	n/a	1	1.0154	5.0	att_neut	n/a	1	1	1	1.015350397
15.005500639	5	attend	negative	71	n/a	n/a	2	15.0055	5.0	att_neg	n/a	1	1	1	15.005500639
29.012463129	5	attend	negative	77	n/a	n/a	3	29.0125	5.0	att_neg	n/a	1	1	1	29.012463129
41.011304793	5	suppress	negative	15	n/a	n/a	4	41.0113	5.0	suppr_neg	n/a	1	1	1	41.011304793
53.0099502	5	suppress	negative	5	n/a	n/a	5	53.01	5.0	suppr_neg	n/a	1	1	1	53.0099502
69.008257558	5	attend	negative	64	n/a	n/a	6	69.0083	5.0	att_neg	n/a	1	1	1	69.008257558
83.015162104	5	suppress	negative	3	n/a	n/a	7	83.0152	5.0	suppr_neg	n/a	1	1	1	83.015162104
100.009299477	5	attend	neutral	97	n/a	n/a	8	100.0093	5.0	att_neut	n/a	1	1	1	100.009299477
111.012236873	5	attend	neutral	93	n/a	n/a	9	111.0122	5.0	att_neut	n/a	1	1	1	111.012236873
121.003063923	5	suppress	negative	19	n/a	n/a	10	121.0031	5.0	suppr_neg	n/a	1	1	1	121.003063923
139.009382946	5	attend	negative	68	n/a	n/a	11	139.0094	5.0	att_neg	n/a	1	1	1	139.009382946
150.012322735	5	attend	neutral	90	n/a	n/a	12	150.0123	5.0	att_neut	n/a	1	1	1	150.012322735
163.00692101	5	suppress	negative	2	n/a	n/a	13	163.0069	5.0	suppr_neg	n/a	1	1	1	163.00692101
176.001321033	5	attend	neutral	84	n/a	n/a	14	176.0013	5.0	att_neut	n/a	1	1	1	176.001321033
188.016865397	5	attend	neutral	100	n/a	n/a	15	188.0169	5.0	att_neut	n/a	1	1	1	188.016865397
201.011330779	5	attend	negative	65	n/a	n/a	16	201.0113	5.0	att_neg	n/a	1	1	1	201.011330779
212.014295004	5	attend	neutral	83	n/a	n/a	17	212.0143	5.0	att_neut	n/a	1	1	1	212.014295004
225.008823061	5	attend	negative	69	n/a	n/a	18	225.0088	5.0	att_neg	n/a	1	1	1	225.008823061
240.011348097	5	attend	neutral	92	n/a	n/a	19	240.0113	5.0	att_neut	n/a	1	1	1	240.011348097
252.010140051	5	suppress	negative	10	n/a	n/a	20	252.0101	5.0	suppr_neg	n/a	1	1	1	252.010140051
263.013060535	5	attend	negative	75	n/a	n/a	21	263.0131	5.0	att_neg	n/a	1	1	1	263.013060535
276.007626378	5	attend	negative	70	n/a	n/a	22	276.0076	5.0	att_neg	n/a	1	1	1	276.007626378
292.005989809	5	attend	neutral	95	n/a	n/a	23	292.006	5.0	att_neut	n/a	1	1	1	292.005989809
307.008673387	5	suppress	negative	14	n/a	n/a	24	307.0087	5.0	suppr_neg	n/a	1	1	1	307.008673387
319.007389119	5	suppress	negative	16	n/a	n/a	25	319.0074	5.0	suppr_neg	n/a	1	1	1	319.007389119
332.001849366	5	suppress	negative	1	n/a	n/a	26	332.0018	5.0	suppr_neg	n/a	1	1	1	332.001849366
344.017331898	5	suppress	negative	11	n/a	n/a	27	344.0173	5.0	suppr_neg	n/a	1	1	1	344.017331898
355.003658465	5	attend	negative	62	n/a	n/a	28	355.0037	5.0	att_neg	n/a	1	1	1	355.003658465
365.010883137	5	attend	neutral	88	n/a	n/a	29	365.0109	5.0	att_neut	n/a	1	1	1	365.010883137
381.00939462	5	attend	negative	74	n/a	n/a	30	381.0094	5.0	att_neg	n/a	1	1	1	381.00939462
401.015009383	5	attend	negative	66	n/a	n/a	1	1.015	5.0	att_neg	n/a	1	2	1	1.015009383
413.013836439	5	attend	neutral	99	n/a	n/a	2	13.0138	5.0	att_neut	n/a	1	2	1	13.013836439
429.012062778	5	attend	negative	72	n/a	n/a	3	29.0121	5.0	att_neg	n/a	1	2	1	29.012062778
443.002359933	5	suppress	negative	7	n/a	n/a	4	43.0024	5.0	suppr_neg	n/a	1	2	1	43.002359933
453.009619969	5	suppress	negative	17	n/a	n/a	5	53.0096	5.0	suppr_neg	n/a	1	2	1	53.009619969
465.00832092	5	suppress	negative	4	n/a	n/a	6	65.0083	5.0	suppr_neg	n/a	1	2	1	65.00832092
477.007144471	5	suppress	negative	20	n/a	n/a	7	77.0071	5.0	suppr_neg	n/a	1	2	1	77.007144471
489.00592456	5	attend	neutral	89	n/a	n/a	8	89.0059	5.0	att_neut	n/a	1	2	1	89.00592456
499.013093655	5	attend	negative	63	n/a	n/a	9	99.0131	5.0	att_neg	n/a	1	2	1	99.013093655
511.012026013	5	attend	negative	76	n/a	n/a	10	111.012	5.0	att_neg	n/a	1	2	1	111.012026013
527.010248717	5	suppress	negative	8	n/a	n/a	11	127.0102	5.0	suppr_neg	n/a	1	2	1	127.010248717
541.017065054	5	attend	neutral	96	n/a	n/a	12	141.0171	5.0	att_neut	n/a	1	2	1	141.017065054
551.007872153	5	attend	negative	80	n/a	n/a	13	151.0079	5.0	att_neg	n/a	1	2	1	151.007872153
570.009865387	5	attend	neutral	98	n/a	n/a	14	170.0099	5.0	att_neut	n/a	1	2	1	170.009865387
583.004572835	5	attend	negative	78	n/a	n/a	15	183.0046	5.0	att_neg	n/a	1	2	1	183.004572835
594.007491005	5	attend	neutral	94	n/a	n/a	16	194.0075	5.0	att_neut	n/a	1	2	1	194.007491005
605.010460767	5	attend	neutral	86	n/a	n/a	17	205.0105	5.0	att_neut	n/a	1	2	1	205.010460767
617.009264685	5	suppress	negative	9	n/a	n/a	18	217.0093	5.0	suppr_neg	n/a	1	2	1	217.009264685
633.007652954	5	attend	neutral	85	n/a	n/a	19	233.0077	5.0	att_neut	n/a	1	2	1	233.007652954
648.010222775	5	attend	negative	73	n/a	n/a	20	248.0102	5.0	att_neg	n/a	1	2	1	248.010222775
659.013344683	5	suppress	negative	13	n/a	n/a	21	259.0133	5.0	suppr_neg	n/a	1	2	1	259.013344683
672.007772789	5	attend	neutral	91	n/a	n/a	22	272.0078	5.0	att_neut	n/a	1	2	1	272.007772789
685.002248041	5	attend	neutral	81	n/a	n/a	23	285.0022	5.0	att_neut	n/a	1	2	1	285.002248041
697.017572663	5	suppress	negative	6	n/a	n/a	24	297.0176	5.0	suppr_neg	n/a	1	2	1	297.017572663
709.016413237	5	attend	negative	67	n/a	n/a	25	309.0164	5.0	att_neg	n/a	1	2	1	309.016413237
720.0028524	5	suppress	negative	12	n/a	n/a	26	320.0029	5.0	suppr_neg	n/a	1	2	1	320.0028524
739.004917291	5	suppress	negative	18	n/a	n/a	27	339.0049	5.0	suppr_neg	n/a	1	2	1	339.004917291
753.011867681	5	attend	negative	61	n/a	n/a	28	353.0119	5.0	att_neg	n/a	1	2	1	353.011867681
767.002044076	5	attend	negative	79	n/a	n/a	29	367.002	5.0	att_neg	n/a	1	2	1	367.002044076
780.013206685	5	attend	neutral	82	n/a	n/a	30	380.0132	5.0	att_neut	n/a	1	2	1	380.013206685
1.009866255	5	attend	negative	57	n/a	n/a	1	1.0099	5.0	att_neg	n/a	2	1	1	1.009866255
13.008672396	5	attend	neutral	108	n/a	n/a	2	13.0087	5.0	att_neut	n/a	2	1	1	13.008672396
29.006880911	5	attend	negative	60	n/a	n/a	3	29.0069	5.0	att_neg	n/a	2	1	1	29.006880911
43.013913138	5	suppress	negative	75	n/a	n/a	4	43.0139	5.0	suppr_neg	n/a	2	1	1	43.013913138
53.004408066	5	suppress	negative	64	n/a	n/a	5	53.0044	5.0	suppr_neg	n/a	2	1	1	53.004408066
65.003229368	5	suppress	negative	76	n/a	n/a	6	65.0032	5.0	suppr_neg	n/a	2	1	1	65.003229368
77.001992105	5	suppress	negative	67	n/a	n/a	7	77.002	5.0	suppr_neg	n/a	2	1	1	77.001992105
89.017472796	5	attend	neutral	101	n/a	n/a	8	89.0175	5.0	att_neut	n/a	2	1	1	89.017472796
99.008124563	5	attend	negative	47	n/a	n/a	9	99.0081	5.0	att_neg	n/a	2	1	1	99.008124563
111.006752725	5	attend	negative	53	n/a	n/a	10	111.0068	5.0	att_neg	n/a	2	1	1	111.006752725
127.005214459	5	suppress	negative	71	n/a	n/a	11	127.0052	5.0	suppr_neg	n/a	2	1	1	127.005214459
141.012014333	5	attend	neutral	119	n/a	n/a	12	141.012	5.0	att_neut	n/a	2	1	1	141.012014333
151.002822258	5	attend	negative	44	n/a	n/a	13	151.0028	5.0	att_neg	n/a	2	1	1	151.002822258
170.004839788	5	attend	neutral	114	n/a	n/a	14	170.0048	5.0	att_neut	n/a	2	1	1	170.004839788
183.015942689	5	attend	negative	54	n/a	n/a	15	183.0159	5.0	att_neg	n/a	2	1	1	183.015942689
194.002317336	5	attend	neutral	105	n/a	n/a	16	194.0023	5.0	att_neut	n/a	2	1	1	194.002317336
205.005343117	5	attend	neutral	118	n/a	n/a	17	205.0053	5.0	att_neut	n/a	2	1	1	205.005343117
217.004147658	5	suppress	negative	66	n/a	n/a	18	217.0041	5.0	suppr_neg	n/a	2	1	1	217.004147658
233.002539943	5	attend	neutral	107	n/a	n/a	19	233.0025	5.0	att_neut	n/a	2	1	1	233.002539943
248.005150708	5	attend	negative	56	n/a	n/a	20	248.0052	5.0	att_neg	n/a	2	1	1	248.005150708
259.008187029	5	suppress	negative	69	n/a	n/a	21	259.0082	5.0	suppr_neg	n/a	2	1	1	259.008187029
272.002726163	5	attend	neutral	120	n/a	n/a	22	272.0027	5.0	att_neut	n/a	2	1	1	272.002726163
285.013806409	5	attend	neutral	111	n/a	n/a	23	285.0138	5.0	att_neut	n/a	2	1	1	285.013806409
297.012449017	5	suppress	negative	73	n/a	n/a	24	297.0124	5.0	suppr_neg	n/a	2	1	1	297.012449017
309.011338517	5	attend	negative	55	n/a	n/a	25	309.0113	5.0	att_neg	n/a	2	1	1	309.011338517
320.014253143	5	suppress	negative	80	n/a	n/a	26	320.0143	5.0	suppr_neg	n/a	2	1	1	320.014253143
339.016552621	5	suppress	negative	72	n/a	n/a	27	339.0166	5.0	suppr_neg	n/a	2	1	1	339.016552621
353.006764002	5	attend	negative	58	n/a	n/a	28	353.0068	5.0	att_neg	n/a	2	1	1	353.006764002
367.013585621	5	attend	negative	45	n/a	n/a	29	367.0136	5.0	att_neg	n/a	2	1	1	367.013585621
380.008010688	5	attend	neutral	110	n/a	n/a	30	380.008	5.0	att_neut	n/a	2	1	1	380.008010688
401.015969601	5	attend	neutral	102	n/a	n/a	1	1.016	5.0	att_neut	n/a	2	2	1	1.015969601
415.00613821	5	attend	negative	41	n/a	n/a	2	15.0061	5.0	att_neg	n/a	2	2	1	15.00613821
429.012983437	5	attend	negative	49	n/a	n/a	3	29.013	5.0	att_neg	n/a	2	2	1	29.012983437
441.011812024	5	suppress	negative	77	n/a	n/a	4	41.0118	5.0	suppr_neg	n/a	2	2	1	41.011812024
453.010557267	5	suppress	negative	79	n/a	n/a	5	53.0106	5.0	suppr_neg	n/a	2	2	1	53.010557267
469.008813832	5	attend	negative	51	n/a	n/a	6	69.0088	5.0	att_neg	n/a	2	2	1	69.008813832
483.01573526	5	suppress	negative	63	n/a	n/a	7	83.0157	5.0	suppr_neg	n/a	2	2	1	83.01573526
500.009917696	5	attend	neutral	112	n/a	n/a	8	100.0099	5.0	att_neut	n/a	2	2	1	100.009917696
511.012918616	5	attend	neutral	115	n/a	n/a	9	111.0129	5.0	att_neut	n/a	2	2	1	111.012918616
521.003473018	5	suppress	negative	70	n/a	n/a	10	121.0035	5.0	suppr_neg	n/a	2	2	1	121.003473018
539.009956297	5	attend	negative	48	n/a	n/a	11	139.01	5.0	att_neg	n/a	2	2	1	139.009956297
550.013064988	5	attend	neutral	116	n/a	n/a	12	150.0131	5.0	att_neut	n/a	2	2	1	150.013064988
563.007406887	5	suppress	negative	74	n/a	n/a	13	163.0074	5.0	suppr_neg	n/a	2	2	1	163.007406887
576.00196673	5	attend	neutral	103	n/a	n/a	14	176.002	5.0	att_neut	n/a	2	2	1	176.00196673
588.017344795	5	attend	neutral	117	n/a	n/a	15	188.0173	5.0	att_neut	n/a	2	2	1	188.017344795
601.011873553	5	attend	negative	42	n/a	n/a	16	201.0119	5.0	att_neg	n/a	2	2	1	201.011873553
612.014905411	5	attend	neutral	113	n/a	n/a	17	212.0149	5.0	att_neut	n/a	2	2	1	212.014905411
625.009143241	5	attend	negative	59	n/a	n/a	18	225.0091	5.0	att_neg	n/a	2	2	1	225.009143241
640.012008406	5	attend	neutral	109	n/a	n/a	19	240.012	5.0	att_neut	n/a	2	2	1	240.012008406
652.01066078	5	suppress	negative	62	n/a	n/a	20	252.0107	5.0	suppr_neg	n/a	2	2	1	252.01066078
663.01367654	5	attend	negative	52	n/a	n/a	21	263.0137	5.0	att_neg	n/a	2	2	1	263.01367654
676.008312181	5	attend	negative	43	n/a	n/a	22	276.0083	5.0	att_neg	n/a	2	2	1	276.008312181
692.00658943	5	attend	neutral	106	n/a	n/a	23	292.0066	5.0	att_neut	n/a	2	2	1	292.00658943
707.009248193	5	suppress	negative	78	n/a	n/a	24	307.0092	5.0	suppr_neg	n/a	2	2	1	307.009248193
719.008001236	5	suppress	negative	65	n/a	n/a	25	319.008	5.0	suppr_neg	n/a	2	2	1	319.008001236
732.002500766	5	suppress	negative	61	n/a	n/a	26	332.0025	5.0	suppr_neg	n/a	2	2	1	332.002500766
744.017810042	5	suppress	negative	68	n/a	n/a	27	344.0178	5.0	suppr_neg	n/a	2	2	1	344.017810042
755.004278578	5	attend	negative	50	n/a	n/a	28	355.0043	5.0	att_neg	n/a	2	2	1	355.004278578
765.011602182	5	attend	neutral	104	n/a	n/a	29	365.0116	5.0	att_neut	n/a	2	2	1	365.011602182
781.009952568	5	attend	negative	46	n/a	n/a	30	381.01	5.0	att_neg	n/a	2	2	1	381.009952568
1.010949119	5	attend	neutral	87	n/a	n/a	1	1.0109	5.0	att_neut	n/a	3	1	1	1.010949119
15.017783222	5	attend	negative	71	n/a	n/a	2	15.0178	5.0	att_neg	n/a	3	1	1	15.017783222
29.008018425	5	attend	negative	77	n/a	n/a	3	29.008	5.0	att_neg	n/a	3	1	1	29.008018425
41.006694949	5	suppress	negative	15	n/a	n/a	4	41.0067	5.0	suppr_neg	n/a	3	1	1	41.006694949
53.005506188	5	suppress	negative	5	n/a	n/a	5	53.0055	5.0	suppr_neg	n/a	3	1	1	53.005506188
69.003911171	5	attend	negative	64	n/a	n/a	6	69.0039	5.0	att_neg	n/a	3	1	1	69.003911171
83.010715338	5	suppress	negative	3	n/a	n/a	7	83.0107	5.0	suppr_neg	n/a	3	1	1	83.010715338
100.004854199	5	attend	neutral	97	n/a	n/a	8	100.0049	5.0	att_neut	n/a	3	1	1	100.004854199
111.007847024	5	attend	neutral	93	n/a	n/a	9	111.0078	5.0	att_neut	n/a	3	1	1	111.007847024
121.015283939	5	suppress	negative	19	n/a	n/a	10	121.0153	5.0	suppr_neg	n/a	3	1	1	121.015283939
139.004901993	5	attend	negative	68	n/a	n/a	11	139.0049	5.0	att_neg	n/a	3	1	1	139.004901993
150.00804706	5	attend	neutral	90	n/a	n/a	12	150.008	5.0	att_neut	n/a	3	1	1	150.00804706
163.002482444	5	suppress	negative	2	n/a	n/a	13	163.0025	5.0	suppr_neg	n/a	3	1	1	163.002482444
176.013581179	5	attend	neutral	84	n/a	n/a	14	176.0136	5.0	att_neut	n/a	3	1	1	176.013581179
188.012263375	5	attend	neutral	100	n/a	n/a	15	188.0123	5.0	att_neut	n/a	3	1	1	188.012263375
201.006797919	5	attend	negative	65	n/a	n/a	16	201.0068	5.0	att_neg	n/a	3	1	1	201.006797919
212.009832188	5	attend	neutral	83	n/a	n/a	17	212.0098	5.0	att_neut	n/a	3	1	1	212.009832188
225.004326097	5	attend	negative	69	n/a	n/a	18	225.0043	5.0	att_neg	n/a	3	1	1	225.004326097
240.006973016	5	attend	neutral	92	n/a	n/a	19	240.007	5.0	att_neut	n/a	3	1	1	240.006973016
252.005706501	5	suppress	negative	10	n/a	n/a	20	252.0057	5.0	suppr_neg	n/a	3	1	1	252.005706501
263.008840574	5	attend	negative	75	n/a	n/a	21	263.0088	5.0	att_neg	n/a	3	1	1	263.008840574
276.003363877	5	attend	negative	70	n/a	n/a	22	276.0034	5.0	att_neg	n/a	3	1	1	276.003363877
292.001630145	5	attend	neutral	95	n/a	n/a	23	292.0016	5.0	att_neut	n/a	3	1	1	292.001630145
307.004118675	5	suppress	negative	14	n/a	n/a	24	307.0041	5.0	suppr_neg	n/a	3	1	1	307.004118675
319.002935154	5	suppress	negative	16	n/a	n/a	25	319.0029	5.0	suppr_neg	n/a	3	1	1	319.002935154
332.014051275	5	suppress	negative	1	n/a	n/a	26	332.0141	5.0	suppr_neg	n/a	3	1	1	332.014051275
344.012812935	5	suppress	negative	11	n/a	n/a	27	344.0128	5.0	suppr_neg	n/a	3	1	1	344.012812935
355.015936643	5	attend	negative	62	n/a	n/a	28	355.0159	5.0	att_neg	n/a	3	1	1	355.015936643
365.006547515	5	attend	neutral	88	n/a	n/a	29	365.0065	5.0	att_neut	n/a	3	1	1	365.006547515
381.004879183	5	attend	negative	74	n/a	n/a	30	381.0049	5.0	att_neg	n/a	3	1	1	381.004879183
401.006115975	5	attend	negative	66	n/a	n/a	1	1.0061	5.0	att_neg	n/a	3	2	1	1.006115975
413.004862633	5	attend	neutral	99	n/a	n/a	2	13.0049	5.0	att_neut	n/a	3	2	1	13.004862633
429.003228842	5	attend	negative	72	n/a	n/a	3	29.0032	5.0	att_neg	n/a	3	2	1	29.003228842
443.009871141	5	suppress	negative	7	n/a	n/a	4	43.0099	5.0	suppr_neg	n/a	3	2	1	43.009871141
453.017402993	5	suppress	negative	17	n/a	n/a	5	53.0174	5.0	suppr_neg	n/a	3	2	1	53.017402993
465.016024989	5	suppress	negative	4	n/a	n/a	6	65.016	5.0	suppr_neg	n/a	3	2	1	65.016024989
477.014828026	5	suppress	negative	20	n/a	n/a	7	77.0148	5.0	suppr_neg	n/a	3	2	1	77.014828026
489.013597536	5	attend	neutral	89	n/a	n/a	8	89.0136	5.0	att_neut	n/a	3	2	1	89.013597536
499.004218269	5	attend	negative	63	n/a	n/a	9	99.0042	5.0	att_neg	n/a	3	2	1	99.004218269
511.002954273	5	attend	negative	76	n/a	n/a	10	111.003	5.0	att_neg	n/a	3	2	1	111.002954273
527.001334958	5	suppress	negative	8	n/a	n/a	11	127.0013	5.0	suppr_neg	n/a	3	2	1	127.001334958
541.0081428	5	attend	neutral	96	n/a	n/a	12	141.0081	5.0	att_neut	n/a	3	2	1	141.0081428
551.015493677	5	attend	negative	80	n/a	n/a	13	151.0155	5.0	att_neg	n/a	3	2	1	151.015493677
570.017653145	5	attend	neutral	98	n/a	n/a	14	170.0177	5.0	att_neut	n/a	3	2	1	170.017653145
583.012159358	5	attend	negative	78	n/a	n/a	15	183.0122	5.0	att_neg	n/a	3	2	1	183.012159358
594.015102507	5	attend	neutral	94	n/a	n/a	16	194.0151	5.0	att_neut	n/a	3	2	1	194.015102507
605.001596907	5	attend	neutral	86	n/a	n/a	17	205.0016	5.0	att_neut	n/a	3	2	1	205.001596907
617.016989706	5	suppress	negative	9	n/a	n/a	18	217.017	5.0	suppr_neg	n/a	3	2	1	217.016989706
633.015293853	5	attend	neutral	85	n/a	n/a	19	233.0153	5.0	att_neut	n/a	3	2	1	233.015293853
648.001417367	5	attend	negative	73	n/a	n/a	20	248.0014	5.0	att_neg	n/a	3	2	1	248.001417367
659.004344273	5	suppress	negative	13	n/a	n/a	21	259.0043	5.0	suppr_neg	n/a	3	2	1	259.004344273
672.015428181	5	attend	neutral	91	n/a	n/a	22	272.0154	5.0	att_neut	n/a	3	2	1	272.015428181
685.009988332	5	attend	neutral	81	n/a	n/a	23	285.01	5.0	att_neut	n/a	3	2	1	285.009988332
697.008794585	5	suppress	negative	6	n/a	n/a	24	297.0088	5.0	suppr_neg	n/a	3	2	1	297.008794585
709.007489169	5	attend	negative	67	n/a	n/a	25	309.0075	5.0	att_neg	n/a	3	2	1	309.007489169
720.010500858	5	suppress	negative	12	n/a	n/a	26	320.0105	5.0	suppr_neg	n/a	3	2	1	320.010500858
739.012690073	5	suppress	negative	18	n/a	n/a	27	339.0127	5.0	suppr_neg	n/a	3	2	1	339.012690073
753.002984566	5	attend	negative	61	n/a	n/a	28	353.003	5.0	att_neg	n/a	3	2	1	353.002984566
767.0097406	5	attend	negative	79	n/a	n/a	29	367.0097	5.0	att_neg	n/a	3	2	1	367.0097406
780.004294321	5	attend	neutral	82	n/a	n/a	30	380.0043	5.0	att_neut	n/a	3	2	1	380.004294321
1.005335295	5	attend	neutral	111	n/a	n/a	1	1.0053	5.0	att_neut	n/a	10	1	1	1.005335295
15.012337695	5	attend	negative	17	n/a	n/a	2	15.0123	5.0	att_neg	n/a	10	1	1	15.012337695
29.002371976	5	attend	negative	14	n/a	n/a	3	29.0024	5.0	att_neg	n/a	10	1	1	29.002371976
41.001260707	5	suppress	negative	40	n/a	n/a	4	41.0013	5.0	suppr_neg	n/a	10	1	1	41.001260707
53.016832956	5	suppress	negative	36	n/a	n/a	5	53.0168	5.0	suppr_neg	n/a	10	1	1	53.016832956
69.014987634	5	attend	negative	10	n/a	n/a	6	69.015	5.0	att_neg	n/a	10	1	1	69.014987634
83.005294178	5	suppress	negative	23	n/a	n/a	7	83.0053	5.0	suppr_neg	n/a	10	1	1	83.005294178
100.015888625	5	attend	neutral	112	n/a	n/a	8	100.0159	5.0	att_neut	n/a	10	1	1	100.015888625
111.002290693	5	attend	neutral	113	n/a	n/a	9	111.0023	5.0	att_neut	n/a	10	1	1	111.002290693
121.009675967	5	suppress	negative	27	n/a	n/a	10	121.0097	5.0	suppr_neg	n/a	10	1	1	121.009675967
139.015965199	5	attend	negative	11	n/a	n/a	11	139.016	5.0	att_neg	n/a	10	1	1	139.015965199
150.00247152	5	attend	neutral	117	n/a	n/a	12	150.0025	5.0	att_neut	n/a	10	1	1	150.00247152
163.013640413	5	suppress	negative	39	n/a	n/a	13	163.0136	5.0	suppr_neg	n/a	10	1	1	163.013640413
176.008022843	5	attend	neutral	101	n/a	n/a	14	176.008	5.0	att_neut	n/a	10	1	1	176.008022843
188.006929438	5	attend	neutral	120	n/a	n/a	15	188.0069	5.0	att_neut	n/a	10	1	1	188.006929438
201.00139032	5	attend	negative	19	n/a	n/a	16	201.0014	5.0	att_neg	n/a	10	1	1	201.00139032
212.004468791	5	attend	neutral	106	n/a	n/a	17	212.0045	5.0	att_neut	n/a	10	1	1	212.004468791
225.015504049	5	attend	negative	4	n/a	n/a	18	225.0155	5.0	att_neg	n/a	10	1	1	225.015504049
240.001431776	5	attend	neutral	104	n/a	n/a	19	240.0014	5.0	att_neut	n/a	10	1	1	240.001431776
252.016832662	5	suppress	negative	32	n/a	n/a	20	252.0168	5.0	suppr_neg	n/a	10	1	1	252.016832662
263.003327456	5	attend	negative	7	n/a	n/a	21	263.0033	5.0	att_neg	n/a	10	1	1	263.003327456
276.014273885	5	attend	negative	8	n/a	n/a	22	276.0143	5.0	att_neg	n/a	10	1	1	276.014273885
292.012772245	5	attend	neutral	105	n/a	n/a	23	292.0128	5.0	att_neut	n/a	10	1	1	292.012772245
307.01542771	5	suppress	negative	34	n/a	n/a	24	307.0154	5.0	suppr_neg	n/a	10	1	1	307.01542771
319.014200641	5	suppress	negative	33	n/a	n/a	25	319.0142	5.0	suppr_neg	n/a	10	1	1	319.014200641
332.008556524	5	suppress	negative	29	n/a	n/a	26	332.0086	5.0	suppr_neg	n/a	10	1	1	332.008556524
344.007417985	5	suppress	negative	28	n/a	n/a	27	344.0074	5.0	suppr_neg	n/a	10	1	1	344.007417985
355.010274736	5	attend	negative	15	n/a	n/a	28	355.0103	5.0	att_neg	n/a	10	1	1	355.010274736
365.017735642	5	attend	neutral	115	n/a	n/a	29	365.0177	5.0	att_neut	n/a	10	1	1	365.017735642
381.016023085	5	attend	negative	20	n/a	n/a	30	381.016	5.0	att_neg	n/a	10	1	1	381.016023085
401.015252066	5	attend	negative	16	n/a	n/a	1	1.0153	5.0	att_neg	n/a	10	2	1	1.015252066
413.014058142	5	attend	neutral	108	n/a	n/a	2	13.0141	5.0	att_neut	n/a	10	2	1	13.014058142
429.012265515	5	attend	negative	13	n/a	n/a	3	29.0123	5.0	att_neg	n/a	10	2	1	29.012265515
443.002546336	5	suppress	negative	22	n/a	n/a	4	43.0025	5.0	suppr_neg	n/a	10	2	1	43.002546336
453.009857269	5	suppress	negative	25	n/a	n/a	5	53.0099	5.0	suppr_neg	n/a	10	2	1	53.009857269
465.008623864	5	suppress	negative	35	n/a	n/a	6	65.0086	5.0	suppr_neg	n/a	10	2	1	65.008623864
477.007435908	5	suppress	negative	26	n/a	n/a	7	77.0074	5.0	suppr_neg	n/a	10	2	1	77.007435908
489.006254026	5	attend	neutral	119	n/a	n/a	8	89.0063	5.0	att_neut	n/a	10	2	1	89.006254026
499.013502014	5	attend	negative	3	n/a	n/a	9	99.0135	5.0	att_neg	n/a	10	2	1	99.013502014
511.012246126	5	attend	negative	1	n/a	n/a	10	111.0122	5.0	att_neg	n/a	10	2	1	111.012246126
527.010462511	5	suppress	negative	31	n/a	n/a	11	127.0105	5.0	suppr_neg	n/a	10	2	1	127.010462511
541.01732973	5	attend	neutral	110	n/a	n/a	12	141.0173	5.0	att_neut	n/a	10	2	1	141.01732973
551.008063075	5	attend	negative	12	n/a	n/a	13	151.0081	5.0	att_neg	n/a	10	2	1	151.008063075
570.010260241	5	attend	neutral	114	n/a	n/a	14	170.0103	5.0	att_neut	n/a	10	2	1	170.010260241
583.004747549	5	attend	negative	18	n/a	n/a	15	183.0047	5.0	att_neg	n/a	10	2	1	183.004747549
594.007821378	5	attend	neutral	116	n/a	n/a	16	194.0078	5.0	att_neut	n/a	10	2	1	194.007821378
605.010724588	5	attend	neutral	107	n/a	n/a	17	205.0107	5.0	att_neut	n/a	10	2	1	205.010724588
617.009440235	5	suppress	negative	38	n/a	n/a	18	217.0094	5.0	suppr_neg	n/a	10	2	1	217.009440235
633.007933978	5	attend	neutral	103	n/a	n/a	19	233.0079	5.0	att_neut	n/a	10	2	1	233.007933978
648.010546991	5	attend	negative	2	n/a	n/a	20	248.0105	5.0	att_neg	n/a	10	2	1	248.010546991
659.013543425	5	suppress	negative	30	n/a	n/a	21	259.0135	5.0	suppr_neg	n/a	10	2	1	259.013543425
672.008020268	5	attend	neutral	118	n/a	n/a	22	272.008	5.0	att_neut	n/a	10	2	1	272.008020268
685.002606269	5	attend	neutral	102	n/a	n/a	23	285.0026	5.0	att_neut	n/a	10	2	1	285.002606269
697.001248363	5	suppress	negative	21	n/a	n/a	24	297.0012	5.0	suppr_neg	n/a	10	2	1	297.001248363
709.01665397	5	attend	negative	5	n/a	n/a	25	309.0167	5.0	att_neg	n/a	10	2	1	309.01665397
720.003067254	5	suppress	negative	24	n/a	n/a	26	320.0031	5.0	suppr_neg	n/a	10	2	1	320.003067254
739.005273652	5	suppress	negative	37	n/a	n/a	27	339.0053	5.0	suppr_neg	n/a	10	2	1	339.005273652
753.012053842	5	attend	negative	9	n/a	n/a	28	353.0121	5.0	att_neg	n/a	10	2	1	353.012053842
767.002460463	5	attend	negative	6	n/a	n/a	29	367.0025	5.0	att_neg	n/a	10	2	1	367.002460463
780.013423877	5	attend	neutral	109	n/a	n/a	30	380.0134	5.0	att_neut	n/a	10	2	1	380.013423877
1.004513412	5	attend	neutral	111	n/a	n/a	1	1.0045	5.0	att_neut	n/a	11	1	1	1.004513412
15.011522015	5	attend	negative	17	n/a	n/a	2	15.0115	5.0	att_neg	n/a	11	1	1	15.011522015
29.001811637	5	attend	negative	14	n/a	n/a	3	29.0018	5.0	att_neg	n/a	11	1	1	29.001811637
41.017060156	5	suppress	negative	40	n/a	n/a	4	41.0171	5.0	suppr_neg	n/a	11	1	1	41.017060156
53.015928565	5	suppress	negative	36	n/a	n/a	5	53.0159	5.0	suppr_neg	n/a	11	1	1	53.015928565
69.014188644	5	attend	negative	10	n/a	n/a	6	69.0142	5.0	att_neg	n/a	11	1	1	69.014188644
83.00451269	5	suppress	negative	23	n/a	n/a	7	83.0045	5.0	suppr_neg	n/a	11	1	1	83.00451269
100.01519208	5	attend	neutral	112	n/a	n/a	8	100.0152	5.0	att_neut	n/a	11	1	1	100.01519208
111.001540161	5	attend	neutral	113	n/a	n/a	9	111.0015	5.0	att_neut	n/a	11	1	1	111.001540161
121.008779094	5	suppress	negative	27	n/a	n/a	10	121.0088	5.0	suppr_neg	n/a	11	1	1	121.008779094
139.015374863	5	attend	negative	11	n/a	n/a	11	139.0154	5.0	att_neg	n/a	11	1	1	139.015374863
150.001826696	5	attend	neutral	117	n/a	n/a	12	150.0018	5.0	att_neut	n/a	11	1	1	150.001826696
163.012794373	5	suppress	negative	39	n/a	n/a	13	163.0128	5.0	suppr_neg	n/a	11	1	1	163.012794373
176.007328255	5	attend	neutral	101	n/a	n/a	14	176.0073	5.0	att_neut	n/a	11	1	1	176.007328255
188.0060541	5	attend	neutral	120	n/a	n/a	15	188.0061	5.0	att_neut	n/a	11	1	1	188.0060541
201.017238258	5	attend	negative	19	n/a	n/a	16	201.0172	5.0	att_neg	n/a	11	1	1	201.017238258
212.003718704	5	attend	neutral	106	n/a	n/a	17	212.0037	5.0	att_neut	n/a	11	1	1	212.003718704
225.014760206	5	attend	negative	4	n/a	n/a	18	225.0148	5.0	att_neg	n/a	11	1	1	225.014760206
240.017243182	5	attend	neutral	104	n/a	n/a	19	240.0172	5.0	att_neut	n/a	11	1	1	240.017243182
252.016163742	5	suppress	negative	32	n/a	n/a	20	252.0162	5.0	suppr_neg	n/a	11	1	1	252.016163742
263.002456784	5	attend	negative	7	n/a	n/a	21	263.0025	5.0	att_neg	n/a	11	1	1	263.002456784
276.013634453	5	attend	negative	8	n/a	n/a	22	276.0136	5.0	att_neg	n/a	11	1	1	276.013634453
292.012049759	5	attend	neutral	105	n/a	n/a	23	292.012	5.0	att_neut	n/a	11	1	1	292.012049759
307.014551276	5	suppress	negative	34	n/a	n/a	24	307.0146	5.0	suppr_neg	n/a	11	1	1	307.014551276
319.013271032	5	suppress	negative	33	n/a	n/a	25	319.0133	5.0	suppr_neg	n/a	11	1	1	319.013271032
332.007841948	5	suppress	negative	29	n/a	n/a	26	332.0078	5.0	suppr_neg	n/a	11	1	1	332.007841948
344.006706889	5	suppress	negative	28	n/a	n/a	27	344.0067	5.0	suppr_neg	n/a	11	1	1	344.006706889
355.009671755	5	attend	negative	15	n/a	n/a	28	355.0097	5.0	att_neg	n/a	11	1	1	355.009671755
365.016890366	5	attend	neutral	115	n/a	n/a	29	365.0169	5.0	att_neut	n/a	11	1	1	365.016890366
381.015172373	5	attend	negative	20	n/a	n/a	30	381.0152	5.0	att_neg	n/a	11	1	1	381.015172373
401.01014874	5	attend	negative	16	n/a	n/a	1	1.0101	5.0	att_neg	n/a	11	2	1	1.01014874
413.009177573	5	attend	neutral	108	n/a	n/a	2	13.0092	5.0	att_neut	n/a	11	2	1	13.009177573
429.007274792	5	attend	negative	13	n/a	n/a	3	29.0073	5.0	att_neg	n/a	11	2	1	29.007274792
443.014146311	5	suppress	negative	22	n/a	n/a	4	43.0141	5.0	suppr_neg	n/a	11	2	1	43.014146311
453.00463203	5	suppress	negative	25	n/a	n/a	5	53.0046	5.0	suppr_neg	n/a	11	2	1	53.00463203
465.003661041	5	suppress	negative	35	n/a	n/a	6	65.0037	5.0	suppr_neg	n/a	11	2	1	65.003661041
477.002524048	5	suppress	negative	26	n/a	n/a	7	77.0025	5.0	suppr_neg	n/a	11	2	1	77.002524048
489.017768954	5	attend	neutral	119	n/a	n/a	8	89.0178	5.0	att_neut	n/a	11	2	1	89.017768954
499.00833445	5	attend	negative	3	n/a	n/a	9	99.0083	5.0	att_neg	n/a	11	2	1	99.00833445
511.007187612	5	attend	negative	1	n/a	n/a	10	111.0072	5.0	att_neg	n/a	11	2	1	111.007187612
527.005465978	5	suppress	negative	31	n/a	n/a	11	127.0055	5.0	suppr_neg	n/a	11	2	1	127.005465978
541.012303957	5	attend	neutral	110	n/a	n/a	12	141.0123	5.0	att_neut	n/a	11	2	1	141.012303957
551.003018069	5	attend	negative	12	n/a	n/a	13	151.003	5.0	att_neg	n/a	11	2	1	151.003018069
570.005098096	5	attend	neutral	114	n/a	n/a	14	170.0051	5.0	att_neut	n/a	11	2	1	170.005098096
583.016300595	5	attend	negative	18	n/a	n/a	15	183.0163	5.0	att_neg	n/a	11	2	1	183.016300595
594.002694174	5	attend	neutral	116	n/a	n/a	16	194.0027	5.0	att_neut	n/a	11	2	1	194.002694174
605.005646447	5	attend	neutral	107	n/a	n/a	17	205.0056	5.0	att_neut	n/a	11	2	1	205.005646447
617.004428497	5	suppress	negative	38	n/a	n/a	18	217.0044	5.0	suppr_neg	n/a	11	2	1	217.004428497
633.002754411	5	attend	neutral	103	n/a	n/a	19	233.0028	5.0	att_neut	n/a	11	2	1	233.002754411
648.005411816	5	attend	negative	2	n/a	n/a	20	248.0054	5.0	att_neg	n/a	11	2	1	248.005411816
659.008511865	5	suppress	negative	30	n/a	n/a	21	259.0085	5.0	suppr_neg	n/a	11	2	1	259.008511865
672.003051047	5	attend	neutral	118	n/a	n/a	22	272.0031	5.0	att_neut	n/a	11	2	1	272.003051047
685.014076956	5	attend	neutral	102	n/a	n/a	23	285.0141	5.0	att_neut	n/a	11	2	1	285.014076956
697.012832657	5	suppress	negative	21	n/a	n/a	24	297.0128	5.0	suppr_neg	n/a	11	2	1	297.012832657
709.011663508	5	attend	negative	5	n/a	n/a	25	309.0117	5.0	att_neg	n/a	11	2	1	309.011663508
720.014547962	5	suppress	negative	24	n/a	n/a	26	320.0145	5.0	suppr_neg	n/a	11	2	1	320.014547962
739.016734232	5	suppress	negative	37	n/a	n/a	27	339.0167	5.0	suppr_neg	n/a	11	2	1	339.016734232
753.007157903	5	attend	negative	9	n/a	n/a	28	353.0072	5.0	att_neg	n/a	11	2	1	353.007157903
767.013924685	5	attend	negative	6	n/a	n/a	29	367.0139	5.0	att_neg	n/a	11	2	1	367.013924685
780.008487955	5	attend	neutral	109	n/a	n/a	30	380.0085	5.0	att_neut	n/a	11	2	1	380.008487955
1.004340399	5	attend	neutral	111	n/a	n/a	1	1.0043	5.0	att_neut	n/a	12	1	1	1.004340399
15.011105963	5	attend	negative	17	n/a	n/a	2	15.0111	5.0	att_neg	n/a	12	1	1	15.011105963
29.01782446	5	attend	negative	14	n/a	n/a	3	29.0178	5.0	att_neg	n/a	12	1	1	29.01782446
41.016588185	5	suppress	negative	40	n/a	n/a	4	41.0166	5.0	suppr_neg	n/a	12	1	1	41.016588185
53.015238109	5	suppress	negative	36	n/a	n/a	5	53.0152	5.0	suppr_neg	n/a	12	1	1	53.015238109
69.013794182	5	attend	negative	10	n/a	n/a	6	69.0138	5.0	att_neg	n/a	12	1	1	69.013794182
83.003985185	5	suppress	negative	23	n/a	n/a	7	83.004	5.0	suppr_neg	n/a	12	1	1	83.003985185
100.014702367	5	attend	neutral	112	n/a	n/a	8	100.0147	5.0	att_neut	n/a	12	1	1	100.014702367
111.017702307	5	attend	neutral	113	n/a	n/a	9	111.0177	5.0	att_neut	n/a	12	1	1	111.017702307
121.008375698	5	suppress	negative	27	n/a	n/a	10	121.0084	5.0	suppr_neg	n/a	12	1	1	121.008375698
139.014765244	5	attend	negative	11	n/a	n/a	11	139.0148	5.0	att_neg	n/a	12	1	1	139.014765244
150.017794985	5	attend	neutral	117	n/a	n/a	12	150.0178	5.0	att_neut	n/a	12	1	1	150.017794985
163.012193458	5	suppress	negative	39	n/a	n/a	13	163.0122	5.0	suppr_neg	n/a	12	1	1	163.012193458
176.006885998	5	attend	neutral	101	n/a	n/a	14	176.0069	5.0	att_neut	n/a	12	1	1	176.006885998
188.005547899	5	attend	neutral	120	n/a	n/a	15	188.0055	5.0	att_neut	n/a	12	1	1	188.005547899
201.016701298	5	attend	negative	19	n/a	n/a	16	201.0167	5.0	att_neg	n/a	12	1	1	201.016701298
212.003114581	5	attend	neutral	106	n/a	n/a	17	212.0031	5.0	att_neut	n/a	12	1	1	212.003114581
225.014216173	5	attend	negative	4	n/a	n/a	18	225.0142	5.0	att_neg	n/a	12	1	1	225.014216173
240.016870151	5	attend	neutral	104	n/a	n/a	19	240.0169	5.0	att_neut	n/a	12	1	1	240.016870151
252.015611975	5	suppress	negative	32	n/a	n/a	20	252.0156	5.0	suppr_neg	n/a	12	1	1	252.015611975
263.001955812	5	attend	negative	7	n/a	n/a	21	263.002	5.0	att_neg	n/a	12	1	1	263.001955812
276.013071929	5	attend	negative	8	n/a	n/a	22	276.0131	5.0	att_neg	n/a	12	1	1	276.013071929
292.011381443	5	attend	neutral	105	n/a	n/a	23	292.0114	5.0	att_neut	n/a	12	1	1	292.011381443
307.014050025	5	suppress	negative	34	n/a	n/a	24	307.0141	5.0	suppr_neg	n/a	12	1	1	307.014050025
319.012890295	5	suppress	negative	33	n/a	n/a	25	319.0129	5.0	suppr_neg	n/a	12	1	1	319.012890295
332.007310046	5	suppress	negative	29	n/a	n/a	26	332.0073	5.0	suppr_neg	n/a	12	1	1	332.007310046
344.006106824	5	suppress	negative	28	n/a	n/a	27	344.0061	5.0	suppr_neg	n/a	12	1	1	344.006106824
355.009089963	5	attend	negative	15	n/a	n/a	28	355.0091	5.0	att_neg	n/a	12	1	1	355.009089963
365.016328885	5	attend	neutral	115	n/a	n/a	29	365.0163	5.0	att_neut	n/a	12	1	1	365.016328885
381.01469843	5	attend	negative	20	n/a	n/a	30	381.0147	5.0	att_neg	n/a	12	1	1	381.01469843
401.008494312	5	attend	negative	16	n/a	n/a	1	1.0085	5.0	att_neg	n/a	12	2	1	1.008494312
413.007314982	5	attend	neutral	108	n/a	n/a	2	13.0073	5.0	att_neut	n/a	12	2	1	13.007314982
429.005515117	5	attend	negative	13	n/a	n/a	3	29.0055	5.0	att_neg	n/a	12	2	1	29.005515117
443.012415539	5	suppress	negative	22	n/a	n/a	4	43.0124	5.0	suppr_neg	n/a	12	2	1	43.012415539
453.003111356	5	suppress	negative	25	n/a	n/a	5	53.0031	5.0	suppr_neg	n/a	12	2	1	53.003111356
465.001875242	5	suppress	negative	35	n/a	n/a	6	65.0019	5.0	suppr_neg	n/a	12	2	1	65.001875242
477.017237015	5	suppress	negative	26	n/a	n/a	7	77.0172	5.0	suppr_neg	n/a	12	2	1	77.017237015
489.016047249	5	attend	neutral	119	n/a	n/a	8	89.016	5.0	att_neut	n/a	12	2	1	89.016047249
499.006700289	5	attend	negative	3	n/a	n/a	9	99.0067	5.0	att_neg	n/a	12	2	1	99.006700289
511.005398428	5	attend	negative	1	n/a	n/a	10	111.0054	5.0	att_neg	n/a	12	2	1	111.005398428
527.003733112	5	suppress	negative	31	n/a	n/a	11	127.0037	5.0	suppr_neg	n/a	12	2	1	127.003733112
541.010537378	5	attend	neutral	110	n/a	n/a	12	141.0105	5.0	att_neut	n/a	12	2	1	141.010537378
551.001232845	5	attend	negative	12	n/a	n/a	13	151.0012	5.0	att_neg	n/a	12	2	1	151.001232845
570.00350355	5	attend	neutral	114	n/a	n/a	14	170.0035	5.0	att_neut	n/a	12	2	1	170.00350355
583.014626537	5	attend	negative	18	n/a	n/a	15	183.0146	5.0	att_neg	n/a	12	2	1	183.014626537
594.017651865	5	attend	neutral	116	n/a	n/a	16	194.0177	5.0	att_neut	n/a	12	2	1	194.017651865
605.004098317	5	attend	neutral	107	n/a	n/a	17	205.0041	5.0	att_neut	n/a	12	2	1	205.004098317
617.002809289	5	suppress	negative	38	n/a	n/a	18	217.0028	5.0	suppr_neg	n/a	12	2	1	217.002809289
633.017754251	5	attend	neutral	103	n/a	n/a	19	233.0178	5.0	att_neut	n/a	12	2	1	233.017754251
648.003649944	5	attend	negative	2	n/a	n/a	20	248.0036	5.0	att_neg	n/a	12	2	1	248.003649944
659.006668131	5	suppress	negative	30	n/a	n/a	21	259.0067	5.0	suppr_neg	n/a	12	2	1	259.006668131
672.001276672	5	attend	neutral	118	n/a	n/a	22	272.0013	5.0	att_neut	n/a	12	2	1	272.001276672
685.012417144	5	attend	neutral	102	n/a	n/a	23	285.0124	5.0	att_neut	n/a	12	2	1	285.012417144
697.01111614	5	suppress	negative	21	n/a	n/a	24	297.0111	5.0	suppr_neg	n/a	12	2	1	297.01111614
709.009851263	5	attend	negative	5	n/a	n/a	25	309.0099	5.0	att_neg	n/a	12	2	1	309.009851263
720.012914186	5	suppress	negative	24	n/a	n/a	26	320.0129	5.0	suppr_neg	n/a	12	2	1	320.012914186
739.015106567	5	suppress	negative	37	n/a	n/a	27	339.0151	5.0	suppr_neg	n/a	12	2	1	339.015106567
753.005380566	5	attend	negative	9	n/a	n/a	28	353.0054	5.0	att_neg	n/a	12	2	1	353.005380566
767.01226295	5	attend	negative	6	n/a	n/a	29	367.0123	5.0	att_neg	n/a	12	2	1	367.01226295
780.006721166	5	attend	neutral	109	n/a	n/a	30	380.0067	5.0	att_neut	n/a	12	2	1	380.006721166
1.001461886	5	attend	negative	57	n/a	n/a	1	1.0015	5.0	att_neg	n/a	13	1	1	1.001461886
13.017046766	5	attend	neutral	108	n/a	n/a	2	13.017	5.0	att_neut	n/a	13	1	1	13.017046766
29.015143287	5	attend	negative	60	n/a	n/a	3	29.0151	5.0	att_neg	n/a	13	1	1	29.015143287
43.005517065	5	suppress	negative	75	n/a	n/a	4	43.0055	5.0	suppr_neg	n/a	13	1	1	43.005517065
53.01269136	5	suppress	negative	64	n/a	n/a	5	53.0127	5.0	suppr_neg	n/a	13	1	1	53.01269136
65.011444973	5	suppress	negative	76	n/a	n/a	6	65.0114	5.0	suppr_neg	n/a	13	1	1	65.011444973
77.0102681	5	suppress	negative	67	n/a	n/a	7	77.0103	5.0	suppr_neg	n/a	13	1	1	77.0102681
89.009040984	5	attend	neutral	101	n/a	n/a	8	89.009	5.0	att_neut	n/a	13	1	1	89.009040984
99.01633503	5	attend	negative	47	n/a	n/a	9	99.0163	5.0	att_neg	n/a	13	1	1	99.01633503
111.015144294	5	attend	negative	53	n/a	n/a	10	111.0151	5.0	att_neg	n/a	13	1	1	111.015144294
127.013433327	5	suppress	negative	71	n/a	n/a	11	127.0134	5.0	suppr_neg	n/a	13	1	1	127.013433327
141.003695268	5	attend	neutral	119	n/a	n/a	12	141.0037	5.0	att_neut	n/a	13	1	1	141.003695268
151.010863037	5	attend	negative	44	n/a	n/a	13	151.0109	5.0	att_neg	n/a	13	1	1	151.010863037
170.013158889	5	attend	neutral	114	n/a	n/a	14	170.0132	5.0	att_neut	n/a	13	1	1	170.013158889
183.007548365	5	attend	negative	54	n/a	n/a	15	183.0075	5.0	att_neg	n/a	13	1	1	183.007548365
194.010588672	5	attend	neutral	105	n/a	n/a	16	194.0106	5.0	att_neut	n/a	13	1	1	194.010588672
205.013752644	5	attend	neutral	118	n/a	n/a	17	205.0138	5.0	att_neut	n/a	13	1	1	205.013752644
217.012413558	5	suppress	negative	66	n/a	n/a	18	217.0124	5.0	suppr_neg	n/a	13	1	1	217.012413558
233.01075998	5	attend	neutral	107	n/a	n/a	19	233.0108	5.0	att_neut	n/a	13	1	1	233.01075998
248.013316695	5	attend	negative	56	n/a	n/a	20	248.0133	5.0	att_neg	n/a	13	1	1	248.013316695
259.01639316	5	suppress	negative	69	n/a	n/a	21	259.0164	5.0	suppr_neg	n/a	13	1	1	259.01639316
272.011021729	5	attend	neutral	120	n/a	n/a	22	272.011	5.0	att_neut	n/a	13	1	1	272.011021729
285.005301451	5	attend	neutral	111	n/a	n/a	23	285.0053	5.0	att_neut	n/a	13	1	1	285.005301451
297.004176063	5	suppress	negative	73	n/a	n/a	24	297.0042	5.0	suppr_neg	n/a	13	1	1	297.004176063
309.002989866	5	attend	negative	55	n/a	n/a	25	309.003	5.0	att_neg	n/a	13	1	1	309.002989866
320.005916855	5	suppress	negative	80	n/a	n/a	26	320.0059	5.0	suppr_neg	n/a	13	1	1	320.005916855
339.008087113	5	suppress	negative	72	n/a	n/a	27	339.0081	5.0	suppr_neg	n/a	13	1	1	339.008087113
353.015081084	5	attend	negative	58	n/a	n/a	28	353.0151	5.0	att_neg	n/a	13	1	1	353.015081084
367.005184171	5	attend	negative	45	n/a	n/a	29	367.0052	5.0	att_neg	n/a	13	1	1	367.005184171
380.01630251	5	attend	neutral	110	n/a	n/a	30	380.0163	5.0	att_neut	n/a	13	1	1	380.01630251
401.009747496	5	attend	neutral	102	n/a	n/a	1	1.0097	5.0	att_neut	n/a	13	2	1	1.009747496
415.0166471	5	attend	negative	41	n/a	n/a	2	15.0166	5.0	att_neg	n/a	13	2	1	15.0166471
429.006699121	5	attend	negative	49	n/a	n/a	3	29.0067	5.0	att_neg	n/a	13	2	1	29.006699121
441.005595828	5	suppress	negative	77	n/a	n/a	4	41.0056	5.0	suppr_neg	n/a	13	2	1	41.005595828
453.004284619	5	suppress	negative	79	n/a	n/a	5	53.0043	5.0	suppr_neg	n/a	13	2	1	53.004284619
469.002728713	5	attend	negative	51	n/a	n/a	6	69.0027	5.0	att_neg	n/a	13	2	1	69.002728713
483.009564434	5	suppress	negative	63	n/a	n/a	7	83.0096	5.0	suppr_neg	n/a	13	2	1	83.009564434
500.003642682	5	attend	neutral	112	n/a	n/a	8	100.0036	5.0	att_neut	n/a	13	2	1	100.003642682
511.006576559	5	attend	neutral	115	n/a	n/a	9	111.0066	5.0	att_neut	n/a	13	2	1	111.006576559
521.013889433	5	suppress	negative	70	n/a	n/a	10	121.0139	5.0	suppr_neg	n/a	13	2	1	121.013889433
539.003785613	5	attend	negative	48	n/a	n/a	11	139.0038	5.0	att_neg	n/a	13	2	1	139.003785613
550.006790994	5	attend	neutral	116	n/a	n/a	12	150.0068	5.0	att_neut	n/a	13	2	1	150.006790994
563.017909324	5	suppress	negative	74	n/a	n/a	13	163.0179	5.0	suppr_neg	n/a	13	2	1	163.017909324
576.012267734	5	attend	neutral	103	n/a	n/a	14	176.0123	5.0	att_neut	n/a	13	2	1	176.012267734
588.011091226	5	attend	neutral	117	n/a	n/a	15	188.0111	5.0	att_neut	n/a	13	2	1	188.011091226
601.005548811	5	attend	negative	42	n/a	n/a	16	201.0055	5.0	att_neg	n/a	13	2	1	201.005548811
612.008607118	5	attend	neutral	113	n/a	n/a	17	212.0086	5.0	att_neut	n/a	13	2	1	212.008607118
625.00319223	5	attend	negative	59	n/a	n/a	18	225.0032	5.0	att_neg	n/a	13	2	1	225.00319223
640.005800698	5	attend	neutral	109	n/a	n/a	19	240.0058	5.0	att_neut	n/a	13	2	1	240.005800698
652.004471639	5	suppress	negative	62	n/a	n/a	20	252.0045	5.0	suppr_neg	n/a	13	2	1	252.004471639
663.007614174	5	attend	negative	52	n/a	n/a	21	263.0076	5.0	att_neg	n/a	13	2	1	263.007614174
676.001983887	5	attend	negative	43	n/a	n/a	22	276.002	5.0	att_neg	n/a	13	2	1	276.001983887
692.016962362	5	attend	neutral	106	n/a	n/a	23	292.017	5.0	att_neut	n/a	13	2	1	292.016962362
707.003109581	5	suppress	negative	78	n/a	n/a	24	307.0031	5.0	suppr_neg	n/a	13	2	1	307.003109581
719.001772842	5	suppress	negative	65	n/a	n/a	25	319.0018	5.0	suppr_neg	n/a	13	2	1	319.001772842
732.012864613	5	suppress	negative	61	n/a	n/a	26	332.0129	5.0	suppr_neg	n/a	13	2	1	332.012864613
744.011700801	5	suppress	negative	68	n/a	n/a	27	344.0117	5.0	suppr_neg	n/a	13	2	1	344.011700801
755.014609179	5	attend	negative	50	n/a	n/a	28	355.0146	5.0	att_neg	n/a	13	2	1	355.014609179
765.005338826	5	attend	neutral	104	n/a	n/a	29	365.0053	5.0	att_neut	n/a	13	2	1	365.005338826
781.003645233	5	attend	negative	46	n/a	n/a	30	381.0036	5.0	att_neg	n/a	13	2	1	381.003645233
1.017162426	5	attend	negative	57	n/a	n/a	1	1.0172	5.0	att_neg	n/a	14	1	1	1.017162426
13.015895132	5	attend	neutral	108	n/a	n/a	2	13.0159	5.0	att_neut	n/a	14	1	1	13.015895132
29.014189484	5	attend	negative	60	n/a	n/a	3	29.0142	5.0	att_neg	n/a	14	1	1	29.014189484
43.004340543	5	suppress	negative	75	n/a	n/a	4	43.0043	5.0	suppr_neg	n/a	14	1	1	43.004340543
53.011756794	5	suppress	negative	64	n/a	n/a	5	53.0118	5.0	suppr_neg	n/a	14	1	1	53.011756794
65.010487307	5	suppress	negative	76	n/a	n/a	6	65.0105	5.0	suppr_neg	n/a	14	1	1	65.010487307
77.009212737	5	suppress	negative	67	n/a	n/a	7	77.0092	5.0	suppr_neg	n/a	14	1	1	77.009212737
89.007989053	5	attend	neutral	101	n/a	n/a	8	89.008	5.0	att_neut	n/a	14	1	1	89.007989053
99.015231886	5	attend	negative	47	n/a	n/a	9	99.0152	5.0	att_neg	n/a	14	1	1	99.015231886
111.014061041	5	attend	negative	53	n/a	n/a	10	111.0141	5.0	att_neg	n/a	14	1	1	111.014061041
127.012398205	5	suppress	negative	71	n/a	n/a	11	127.0124	5.0	suppr_neg	n/a	14	1	1	127.012398205
141.008838534	5	attend	neutral	119	n/a	n/a	12	141.0088	5.0	att_neut	n/a	14	1	1	141.008838534
151.009969805	5	attend	negative	44	n/a	n/a	13	151.01	5.0	att_neg	n/a	14	1	1	151.009969805
170.012138109	5	attend	neutral	114	n/a	n/a	14	170.0121	5.0	att_neut	n/a	14	1	1	170.012138109
183.006649781	5	attend	negative	54	n/a	n/a	15	183.0066	5.0	att_neg	n/a	14	1	1	183.006649781
194.009585683	5	attend	neutral	105	n/a	n/a	16	194.0096	5.0	att_neut	n/a	14	1	1	194.009585683
205.012675754	5	attend	neutral	118	n/a	n/a	17	205.0127	5.0	att_neut	n/a	14	1	1	205.012675754
217.011401962	5	suppress	negative	66	n/a	n/a	18	217.0114	5.0	suppr_neg	n/a	14	1	1	217.011401962
233.009672193	5	attend	neutral	107	n/a	n/a	19	233.0097	5.0	att_neut	n/a	14	1	1	233.009672193
248.012366425	5	attend	negative	56	n/a	n/a	20	248.0124	5.0	att_neg	n/a	14	1	1	248.012366425
259.015332922	5	suppress	negative	69	n/a	n/a	21	259.0153	5.0	suppr_neg	n/a	14	1	1	259.015332922
272.010006099	5	attend	neutral	120	n/a	n/a	22	272.01	5.0	att_neut	n/a	14	1	1	272.010006099
285.004364921	5	attend	neutral	111	n/a	n/a	23	285.0044	5.0	att_neut	n/a	14	1	1	285.004364921
297.003061154	5	suppress	negative	73	n/a	n/a	24	297.0031	5.0	suppr_neg	n/a	14	1	1	297.003061154
309.001899905	5	attend	negative	55	n/a	n/a	25	309.0019	5.0	att_neg	n/a	14	1	1	309.001899905
320.004944066	5	suppress	negative	80	n/a	n/a	26	320.0049	5.0	suppr_neg	n/a	14	1	1	320.004944066
339.007139748	5	suppress	negative	72	n/a	n/a	27	339.0071	5.0	suppr_neg	n/a	14	1	1	339.007139748
353.014059089	5	attend	negative	58	n/a	n/a	28	353.0141	5.0	att_neg	n/a	14	1	1	353.014059089
367.004274835	5	attend	negative	45	n/a	n/a	29	367.0043	5.0	att_neg	n/a	14	1	1	367.004274835
380.015386365	5	attend	neutral	110	n/a	n/a	30	380.0154	5.0	att_neut	n/a	14	1	1	380.015386365
401.001849847	5	attend	neutral	102	n/a	n/a	1	1.0018	5.0	att_neut	n/a	14	2	1	1.001849847
415.008723746	5	attend	negative	41	n/a	n/a	2	15.0087	5.0	att_neg	n/a	14	2	1	15.008723746
429.015649293	5	attend	negative	49	n/a	n/a	3	29.0156	5.0	att_neg	n/a	14	2	1	29.015649293
441.014386917	5	suppress	negative	77	n/a	n/a	4	41.0144	5.0	suppr_neg	n/a	14	2	1	41.014386917
453.013273861	5	suppress	negative	79	n/a	n/a	5	53.0133	5.0	suppr_neg	n/a	14	2	1	53.013273861
469.011550273	5	attend	negative	51	n/a	n/a	6	69.0116	5.0	att_neg	n/a	14	2	1	69.011550273
483.001812552	5	suppress	negative	63	n/a	n/a	7	83.0018	5.0	suppr_neg	n/a	14	2	1	83.001812552
500.012454007	5	attend	neutral	112	n/a	n/a	8	100.0125	5.0	att_neut	n/a	14	2	1	100.012454007
511.015468412	5	attend	neutral	115	n/a	n/a	9	111.0155	5.0	att_neut	n/a	14	2	1	111.015468412
521.006243323	5	suppress	negative	70	n/a	n/a	10	121.0062	5.0	suppr_neg	n/a	14	2	1	121.006243323
539.012556253	5	attend	negative	48	n/a	n/a	11	139.0126	5.0	att_neg	n/a	14	2	1	139.012556253
550.015603781	5	attend	neutral	116	n/a	n/a	12	150.0156	5.0	att_neut	n/a	14	2	1	150.015603781
563.010071422	5	suppress	negative	74	n/a	n/a	13	163.0101	5.0	suppr_neg	n/a	14	2	1	163.010071422
576.004651444	5	attend	neutral	103	n/a	n/a	14	176.0047	5.0	att_neut	n/a	14	2	1	176.004651444
588.003405462	5	attend	neutral	117	n/a	n/a	15	188.0034	5.0	att_neut	n/a	14	2	1	188.003405462
601.014464746	5	attend	negative	42	n/a	n/a	16	201.0145	5.0	att_neg	n/a	14	2	1	201.014464746
612.017378909	5	attend	neutral	113	n/a	n/a	17	212.0174	5.0	att_neut	n/a	14	2	1	212.017378909
625.012054443	5	attend	negative	59	n/a	n/a	18	225.0121	5.0	att_neg	n/a	14	2	1	225.012054443
640.014668116	5	attend	neutral	109	n/a	n/a	19	240.0147	5.0	att_neut	n/a	14	2	1	240.014668116
652.013376926	5	suppress	negative	62	n/a	n/a	20	252.0134	5.0	suppr_neg	n/a	14	2	1	252.013376926
663.016415548	5	attend	negative	52	n/a	n/a	21	263.0164	5.0	att_neg	n/a	14	2	1	263.016415548
676.010888892	5	attend	negative	43	n/a	n/a	22	276.0109	5.0	att_neg	n/a	14	2	1	276.010888892
692.009270302	5	attend	neutral	106	n/a	n/a	23	292.0093	5.0	att_neut	n/a	14	2	1	292.009270302
707.011902868	5	suppress	negative	78	n/a	n/a	24	307.0119	5.0	suppr_neg	n/a	14	2	1	307.011902868
719.010549859	5	suppress	negative	65	n/a	n/a	25	319.0105	5.0	suppr_neg	n/a	14	2	1	319.010549859
732.005147423	5	suppress	negative	61	n/a	n/a	26	332.0051	5.0	suppr_neg	n/a	14	2	1	332.005147423
744.003776819	5	suppress	negative	68	n/a	n/a	27	344.0038	5.0	suppr_neg	n/a	14	2	1	344.003776819
755.006880822	5	attend	negative	50	n/a	n/a	28	355.0069	5.0	att_neg	n/a	14	2	1	355.006880822
765.014112896	5	attend	neutral	104	n/a	n/a	29	365.0141	5.0	att_neut	n/a	14	2	1	365.014112896
781.012564842	5	attend	negative	46	n/a	n/a	30	381.0126	5.0	att_neg	n/a	14	2	1	381.012564842
1.005206704	5	attend	negative	38	n/a	n/a	1	1.0052	5.0	att_neg	n/a	16	1	1	1.005206704
13.003854119	5	attend	neutral	97	n/a	n/a	2	13.0039	5.0	att_neut	n/a	16	1	1	13.003854119
29.002257876	5	attend	negative	36	n/a	n/a	3	29.0023	5.0	att_neg	n/a	16	1	1	29.002257876
43.009143136	5	suppress	negative	53	n/a	n/a	4	43.0091	5.0	suppr_neg	n/a	16	1	1	43.009143136
53.016306228	5	suppress	negative	42	n/a	n/a	5	53.0163	5.0	suppr_neg	n/a	16	1	1	53.016306228
65.015178569	5	suppress	negative	47	n/a	n/a	6	65.0152	5.0	suppr_neg	n/a	16	1	1	65.015178569
77.013925067	5	suppress	negative	49	n/a	n/a	7	77.0139	5.0	suppr_neg	n/a	16	1	1	77.013925067
89.012716162	5	attend	neutral	93	n/a	n/a	8	89.0127	5.0	att_neut	n/a	16	1	1	89.012716162
99.003316427	5	attend	negative	21	n/a	n/a	9	99.0033	5.0	att_neg	n/a	16	1	1	99.003316427
111.002027225	5	attend	negative	25	n/a	n/a	10	111.002	5.0	att_neg	n/a	16	1	1	111.002027225
127.017099961	5	suppress	negative	57	n/a	n/a	11	127.0171	5.0	suppr_neg	n/a	16	1	1	127.017099961
141.007264945	5	attend	neutral	83	n/a	n/a	12	141.0073	5.0	att_neut	n/a	16	1	1	141.007264945
151.014560557	5	attend	negative	23	n/a	n/a	13	151.0146	5.0	att_neg	n/a	16	1	1	151.014560557
170.016763735	5	attend	neutral	92	n/a	n/a	14	170.0168	5.0	att_neut	n/a	16	1	1	170.016763735
183.01125942	5	attend	negative	27	n/a	n/a	15	183.0113	5.0	att_neg	n/a	16	1	1	183.01125942
194.014378627	5	attend	neutral	100	n/a	n/a	16	194.0144	5.0	att_neut	n/a	16	1	1	194.014378627
205.017297959	5	attend	neutral	85	n/a	n/a	17	205.0173	5.0	att_neut	n/a	16	1	1	205.017297959
217.01598387	5	suppress	negative	60	n/a	n/a	18	217.016	5.0	suppr_neg	n/a	16	1	1	217.01598387
233.014383301	5	attend	neutral	95	n/a	n/a	19	233.0144	5.0	att_neut	n/a	16	1	1	233.014383301
248.017093575	5	attend	negative	40	n/a	n/a	20	248.0171	5.0	att_neg	n/a	16	1	1	248.017093575
259.003392309	5	suppress	negative	52	n/a	n/a	21	259.0034	5.0	suppr_neg	n/a	16	1	1	259.003392309
272.014431585	5	attend	neutral	99	n/a	n/a	22	272.0144	5.0	att_neut	n/a	16	1	1	272.014431585
285.00905381	5	attend	neutral	82	n/a	n/a	23	285.0091	5.0	att_neut	n/a	16	1	1	285.00905381
297.007759219	5	suppress	negative	43	n/a	n/a	24	297.0078	5.0	suppr_neg	n/a	16	1	1	297.007759219
309.00663046	5	attend	negative	37	n/a	n/a	25	309.0066	5.0	att_neg	n/a	16	1	1	309.00663046
320.009574489	5	suppress	negative	56	n/a	n/a	26	320.0096	5.0	suppr_neg	n/a	16	1	1	320.009574489
339.011812174	5	suppress	negative	44	n/a	n/a	27	339.0118	5.0	suppr_neg	n/a	16	1	1	339.011812174
353.001990525	5	attend	negative	30	n/a	n/a	28	353.002	5.0	att_neg	n/a	16	1	1	353.001990525
367.008892233	5	attend	negative	39	n/a	n/a	29	367.0089	5.0	att_neg	n/a	16	1	1	367.008892233
380.003344877	5	attend	neutral	96	n/a	n/a	30	380.0033	5.0	att_neut	n/a	16	1	1	380.003344877
401.011522835	5	attend	neutral	94	n/a	n/a	1	1.0115	5.0	att_neut	n/a	16	2	1	1.011522835
415.001922897	5	attend	negative	24	n/a	n/a	2	15.0019	5.0	att_neg	n/a	16	2	1	15.001922897
429.008653083	5	attend	negative	34	n/a	n/a	3	29.0087	5.0	att_neg	n/a	16	2	1	29.008653083
441.007544669	5	suppress	negative	58	n/a	n/a	4	41.0075	5.0	suppr_neg	n/a	16	2	1	41.007544669
453.006230902	5	suppress	negative	51	n/a	n/a	5	53.0062	5.0	suppr_neg	n/a	16	2	1	53.006230902
469.004588587	5	attend	negative	26	n/a	n/a	6	69.0046	5.0	att_neg	n/a	16	2	1	69.004588587
483.011471764	5	suppress	negative	48	n/a	n/a	7	83.0115	5.0	suppr_neg	n/a	16	2	1	83.011471764
500.005385124	5	attend	neutral	91	n/a	n/a	8	100.0054	5.0	att_neut	n/a	16	2	1	100.005385124
511.008513822	5	attend	neutral	88	n/a	n/a	9	111.0085	5.0	att_neut	n/a	16	2	1	111.008513822
521.015946616	5	suppress	negative	54	n/a	n/a	10	121.0159	5.0	suppr_neg	n/a	16	2	1	121.015946616
539.005675171	5	attend	negative	28	n/a	n/a	11	139.0057	5.0	att_neg	n/a	16	2	1	139.005675171
550.008639418	5	attend	neutral	84	n/a	n/a	12	150.0086	5.0	att_neut	n/a	16	2	1	150.008639418
563.003065406	5	suppress	negative	55	n/a	n/a	13	163.0031	5.0	suppr_neg	n/a	16	2	1	163.003065406
576.014145526	5	attend	neutral	89	n/a	n/a	14	176.0141	5.0	att_neut	n/a	16	2	1	176.014145526
588.013021315	5	attend	neutral	98	n/a	n/a	15	188.013	5.0	att_neut	n/a	16	2	1	188.013021315
601.00751372	5	attend	negative	31	n/a	n/a	16	201.0075	5.0	att_neg	n/a	16	2	1	201.00751372
612.01058204	5	attend	neutral	81	n/a	n/a	17	212.0106	5.0	att_neut	n/a	16	2	1	212.01058204
625.004945371	5	attend	negative	32	n/a	n/a	18	225.0049	5.0	att_neg	n/a	16	2	1	225.004945371
640.007538093	5	attend	neutral	86	n/a	n/a	19	240.0075	5.0	att_neut	n/a	16	2	1	240.007538093
652.006322438	5	suppress	negative	46	n/a	n/a	20	252.0063	5.0	suppr_neg	n/a	16	2	1	252.006322438
663.009453924	5	attend	negative	29	n/a	n/a	21	263.0095	5.0	att_neg	n/a	16	2	1	263.009453924
676.004041621	5	attend	negative	35	n/a	n/a	22	276.004	5.0	att_neg	n/a	16	2	1	276.004041621
692.002294808	5	attend	neutral	90	n/a	n/a	23	292.0023	5.0	att_neut	n/a	16	2	1	292.002294808
707.004818022	5	suppress	negative	59	n/a	n/a	24	307.0048	5.0	suppr_neg	n/a	16	2	1	307.004818022
719.00365851	5	suppress	negative	50	n/a	n/a	25	319.0037	5.0	suppr_neg	n/a	16	2	1	319.00365851
732.014685826	5	suppress	negative	41	n/a	n/a	26	332.0147	5.0	suppr_neg	n/a	16	2	1	332.014685826
744.013511966	5	suppress	negative	45	n/a	n/a	27	344.0135	5.0	suppr_neg	n/a	16	2	1	344.013511966
755.016550709	5	attend	negative	33	n/a	n/a	28	355.0166	5.0	att_neg	n/a	16	2	1	355.016550709
765.007229792	5	attend	neutral	87	n/a	n/a	29	365.0072	5.0	att_neut	n/a	16	2	1	365.007229792
781.00557343	5	attend	negative	22	n/a	n/a	30	381.0056	5.0	att_neg	n/a	16	2	1	381.00557343
1.01183885	5	attend	neutral	87	n/a	n/a	1	1.0118	5.0	att_neut	n/a	17	1	1	1.01183885
15.002153204	5	attend	negative	71	n/a	n/a	2	15.0022	5.0	att_neg	n/a	17	1	1	15.002153204
29.008912811	5	attend	negative	77	n/a	n/a	3	29.0089	5.0	att_neg	n/a	17	1	1	29.008912811
41.007774615	5	suppress	negative	15	n/a	n/a	4	41.0078	5.0	suppr_neg	n/a	17	1	1	41.007774615
53.006507542	5	suppress	negative	5	n/a	n/a	5	53.0065	5.0	suppr_neg	n/a	17	1	1	53.006507542
69.004781186	5	attend	negative	64	n/a	n/a	6	69.0048	5.0	att_neg	n/a	17	1	1	69.004781186
83.011735002	5	suppress	negative	3	n/a	n/a	7	83.0117	5.0	suppr_neg	n/a	17	1	1	83.011735002
100.005776016	5	attend	neutral	97	n/a	n/a	8	100.0058	5.0	att_neut	n/a	17	1	1	100.005776016
111.008857992	5	attend	neutral	93	n/a	n/a	9	111.0089	5.0	att_neut	n/a	17	1	1	111.008857992
121.016153714	5	suppress	negative	19	n/a	n/a	10	121.0162	5.0	suppr_neg	n/a	17	1	1	121.016153714
139.005924161	5	attend	negative	68	n/a	n/a	11	139.0059	5.0	att_neg	n/a	17	1	1	139.005924161
150.009007245	5	attend	neutral	90	n/a	n/a	12	150.009	5.0	att_neut	n/a	17	1	1	150.009007245
163.003413235	5	suppress	negative	2	n/a	n/a	13	163.0034	5.0	suppr_neg	n/a	17	1	1	163.003413235
176.014513529	5	attend	neutral	84	n/a	n/a	14	176.0145	5.0	att_neut	n/a	17	1	1	176.014513529
188.013448562	5	attend	neutral	100	n/a	n/a	15	188.0134	5.0	att_neut	n/a	17	1	1	188.013448562
201.007849853	5	attend	negative	65	n/a	n/a	16	201.0078	5.0	att_neg	n/a	17	1	1	201.007849853
212.010922814	5	attend	neutral	83	n/a	n/a	17	212.0109	5.0	att_neut	n/a	17	1	1	212.010922814
225.005391991	5	attend	negative	69	n/a	n/a	18	225.0054	5.0	att_neg	n/a	17	1	1	225.005391991
240.007889986	5	attend	neutral	92	n/a	n/a	19	240.0079	5.0	att_neut	n/a	17	1	1	240.007889986
252.006715027	5	suppress	negative	10	n/a	n/a	20	252.0067	5.0	suppr_neg	n/a	17	1	1	252.006715027
263.009852561	5	attend	negative	75	n/a	n/a	21	263.0099	5.0	att_neg	n/a	17	1	1	263.009852561
276.004309251	5	attend	negative	70	n/a	n/a	22	276.0043	5.0	att_neg	n/a	17	1	1	276.004309251
292.002484237	5	attend	neutral	95	n/a	n/a	23	292.0025	5.0	att_neut	n/a	17	1	1	292.002484237
307.005191312	5	suppress	negative	14	n/a	n/a	24	307.0052	5.0	suppr_neg	n/a	17	1	1	307.005191312
319.005793222	5	suppress	negative	16	n/a	n/a	25	319.0058	5.0	suppr_neg	n/a	17	1	1	319.005793222
332.015083297	5	suppress	negative	1	n/a	n/a	26	332.0151	5.0	suppr_neg	n/a	17	1	1	332.015083297
344.013803848	5	suppress	negative	11	n/a	n/a	27	344.0138	5.0	suppr_neg	n/a	17	1	1	344.013803848
355.0170042	5	attend	negative	62	n/a	n/a	28	355.017	5.0	att_neg	n/a	17	1	1	355.0170042
365.007449382	5	attend	neutral	88	n/a	n/a	29	365.0074	5.0	att_neut	n/a	17	1	1	365.007449382
381.005836524	5	attend	negative	74	n/a	n/a	30	381.0058	5.0	att_neg	n/a	17	1	1	381.005836524
401.003496836	5	attend	negative	66	n/a	n/a	1	1.0035	5.0	att_neg	n/a	17	2	1	1.003496836
413.002208979	5	attend	neutral	99	n/a	n/a	2	13.0022	5.0	att_neut	n/a	17	2	1	13.002208979
429.017179839	5	attend	negative	72	n/a	n/a	3	29.0172	5.0	att_neg	n/a	17	2	1	29.017179839
443.007463008	5	suppress	negative	7	n/a	n/a	4	43.0075	5.0	suppr_neg	n/a	17	2	1	43.007463008
453.014748255	5	suppress	negative	17	n/a	n/a	5	53.0147	5.0	suppr_neg	n/a	17	2	1	53.014748255
465.013446774	5	suppress	negative	4	n/a	n/a	6	65.0134	5.0	suppr_neg	n/a	17	2	1	65.013446774
477.0121688	5	suppress	negative	20	n/a	n/a	7	77.0122	5.0	suppr_neg	n/a	17	2	1	77.0121688
489.010999514	5	attend	neutral	89	n/a	n/a	8	89.011	5.0	att_neut	n/a	17	2	1	89.010999514
499.001573861	5	attend	negative	63	n/a	n/a	9	99.0016	5.0	att_neg	n/a	17	2	1	99.001573861
511.017034277	5	attend	negative	76	n/a	n/a	10	111.017	5.0	att_neg	n/a	17	2	1	111.017034277
527.01531813	5	suppress	negative	8	n/a	n/a	11	127.0153	5.0	suppr_neg	n/a	17	2	1	127.01531813
541.005683107	5	attend	neutral	96	n/a	n/a	12	141.0057	5.0	att_neut	n/a	17	2	1	141.005683107
551.012893153	5	attend	negative	80	n/a	n/a	13	151.0129	5.0	att_neg	n/a	17	2	1	151.012893153
570.015057181	5	attend	neutral	98	n/a	n/a	14	170.0151	5.0	att_neut	n/a	17	2	1	170.015057181
583.009625673	5	attend	negative	78	n/a	n/a	15	183.0096	5.0	att_neg	n/a	17	2	1	183.009625673
594.012494193	5	attend	neutral	94	n/a	n/a	16	194.0125	5.0	att_neut	n/a	17	2	1	194.012494193
605.01554823	5	attend	neutral	86	n/a	n/a	17	205.0155	5.0	att_neut	n/a	17	2	1	205.01554823
617.014313475	5	suppress	negative	9	n/a	n/a	18	217.0143	5.0	suppr_neg	n/a	17	2	1	217.014313475
633.012763721	5	attend	neutral	85	n/a	n/a	19	233.0128	5.0	att_neut	n/a	17	2	1	233.012763721
648.015325005	5	attend	negative	73	n/a	n/a	20	248.0153	5.0	att_neg	n/a	17	2	1	248.015325005
659.001817107	5	suppress	negative	13	n/a	n/a	21	259.0018	5.0	suppr_neg	n/a	17	2	1	259.001817107
672.01279482	5	attend	neutral	91	n/a	n/a	22	272.0128	5.0	att_neut	n/a	17	2	1	272.01279482
685.007382564	5	attend	neutral	81	n/a	n/a	23	285.0074	5.0	att_neut	n/a	17	2	1	285.007382564
697.006075634	5	suppress	negative	6	n/a	n/a	24	297.0061	5.0	suppr_neg	n/a	17	2	1	297.006075634
709.004867081	5	attend	negative	67	n/a	n/a	25	309.0049	5.0	att_neg	n/a	17	2	1	309.004867081
720.00784607	5	suppress	negative	12	n/a	n/a	26	320.0078	5.0	suppr_neg	n/a	17	2	1	320.00784607
739.010149824	5	suppress	negative	18	n/a	n/a	27	339.0101	5.0	suppr_neg	n/a	17	2	1	339.010149824
753.016940406	5	attend	negative	61	n/a	n/a	28	353.0169	5.0	att_neg	n/a	17	2	1	353.016940406
767.007223237	5	attend	negative	79	n/a	n/a	29	367.0072	5.0	att_neg	n/a	17	2	1	367.007223237
780.001778854	5	attend	neutral	82	n/a	n/a	30	380.0018	5.0	att_neut	n/a	17	2	1	380.001778854
1.003733064	5	attend	neutral	111	n/a	n/a	1	1.0037	5.0	att_neut	n/a	18	1	1	1.003733064
15.010536083	5	attend	negative	17	n/a	n/a	2	15.0105	5.0	att_neg	n/a	18	1	1	15.010536083
29.017460011	5	attend	negative	14	n/a	n/a	3	29.0175	5.0	att_neg	n/a	18	1	1	29.017460011
41.016231567	5	suppress	negative	40	n/a	n/a	4	41.0162	5.0	suppr_neg	n/a	18	1	1	41.016231567
53.01497425	5	suppress	negative	36	n/a	n/a	5	53.015	5.0	suppr_neg	n/a	18	1	1	53.01497425
69.013294392	5	attend	negative	10	n/a	n/a	6	69.0133	5.0	att_neg	n/a	18	1	1	69.013294392
83.003549477	5	suppress	negative	23	n/a	n/a	7	83.0035	5.0	suppr_neg	n/a	18	1	1	83.003549477
100.014117924	5	attend	neutral	112	n/a	n/a	8	100.0141	5.0	att_neut	n/a	18	1	1	100.014117924
111.017282129	5	attend	neutral	113	n/a	n/a	9	111.0173	5.0	att_neut	n/a	18	1	1	111.017282129
121.007946385	5	suppress	negative	27	n/a	n/a	10	121.0079	5.0	suppr_neg	n/a	18	1	1	121.007946385
139.014452478	5	attend	negative	11	n/a	n/a	11	139.0145	5.0	att_neg	n/a	18	1	1	139.014452478
150.017470045	5	attend	neutral	117	n/a	n/a	12	150.0175	5.0	att_neut	n/a	18	1	1	150.017470045
163.012015338	5	suppress	negative	39	n/a	n/a	13	163.012	5.0	suppr_neg	n/a	18	1	1	163.012015338
176.006393602	5	attend	neutral	101	n/a	n/a	14	176.0064	5.0	att_neut	n/a	18	1	1	176.006393602
188.005279662	5	attend	neutral	120	n/a	n/a	15	188.0053	5.0	att_neut	n/a	18	1	1	188.005279662
201.016365692	5	attend	negative	19	n/a	n/a	16	201.0164	5.0	att_neg	n/a	18	1	1	201.016365692
212.00255342	5	attend	neutral	106	n/a	n/a	17	212.0026	5.0	att_neut	n/a	18	1	1	212.00255342
225.013852564	5	attend	negative	4	n/a	n/a	18	225.0139	5.0	att_neg	n/a	18	1	1	225.013852564
240.01652629	5	attend	neutral	104	n/a	n/a	19	240.0165	5.0	att_neut	n/a	18	1	1	240.01652629
252.01522514	5	suppress	negative	32	n/a	n/a	20	252.0152	5.0	suppr_neg	n/a	18	1	1	252.01522514
263.001472663	5	attend	negative	7	n/a	n/a	21	263.0015	5.0	att_neg	n/a	18	1	1	263.001472663
276.01277774	5	attend	negative	8	n/a	n/a	22	276.0128	5.0	att_neg	n/a	18	1	1	276.01277774
292.011125854	5	attend	neutral	105	n/a	n/a	23	292.0111	5.0	att_neut	n/a	18	1	1	292.011125854
307.013745591	5	suppress	negative	34	n/a	n/a	24	307.0137	5.0	suppr_neg	n/a	18	1	1	307.013745591
319.012336328	5	suppress	negative	33	n/a	n/a	25	319.0123	5.0	suppr_neg	n/a	18	1	1	319.012336328
332.007013716	5	suppress	negative	29	n/a	n/a	26	332.007	5.0	suppr_neg	n/a	18	1	1	332.007013716
344.005645925	5	suppress	negative	28	n/a	n/a	27	344.0056	5.0	suppr_neg	n/a	18	1	1	344.005645925
355.008661874	5	attend	negative	15	n/a	n/a	28	355.0087	5.0	att_neg	n/a	18	1	1	355.008661874
365.016010408	5	attend	neutral	115	n/a	n/a	29	365.016	5.0	att_neut	n/a	18	1	1	365.016010408
381.014367425	5	attend	negative	20	n/a	n/a	30	381.0144	5.0	att_neg	n/a	18	1	1	381.014367425
401.003570886	5	attend	negative	16	n/a	n/a	1	1.0036	5.0	att_neg	n/a	18	2	1	1.003570886
413.002266797	5	attend	neutral	108	n/a	n/a	2	13.0023	5.0	att_neut	n/a	18	2	1	13.002266797
429.017387397	5	attend	negative	13	n/a	n/a	3	29.0174	5.0	att_neg	n/a	18	2	1	29.017387397
443.007613556	5	suppress	negative	22	n/a	n/a	4	43.0076	5.0	suppr_neg	n/a	18	2	1	43.007613556
453.014919749	5	suppress	negative	25	n/a	n/a	5	53.0149	5.0	suppr_neg	n/a	18	2	1	53.014919749
465.013595579	5	suppress	negative	35	n/a	n/a	6	65.0136	5.0	suppr_neg	n/a	18	2	1	65.013595579
477.012275997	5	suppress	negative	26	n/a	n/a	7	77.0123	5.0	suppr_neg	n/a	18	2	1	77.012275997
489.01108846	5	attend	neutral	119	n/a	n/a	8	89.0111	5.0	att_neut	n/a	18	2	1	89.01108846
499.00179487	5	attend	negative	3	n/a	n/a	9	99.0018	5.0	att_neg	n/a	18	2	1	99.00179487
511.017220145	5	attend	negative	1	n/a	n/a	10	111.0172	5.0	att_neg	n/a	18	2	1	111.017220145
527.015545106	5	suppress	negative	31	n/a	n/a	11	127.0155	5.0	suppr_neg	n/a	18	2	1	127.015545106
541.005754954	5	attend	neutral	110	n/a	n/a	12	141.0058	5.0	att_neut	n/a	18	2	1	141.005754954
551.013025877	5	attend	negative	12	n/a	n/a	13	151.013	5.0	att_neg	n/a	18	2	1	151.013025877
570.015168097	5	attend	neutral	114	n/a	n/a	14	170.0152	5.0	att_neut	n/a	18	2	1	170.015168097
583.009777833	5	attend	negative	18	n/a	n/a	15	183.0098	5.0	att_neg	n/a	18	2	1	183.009777833
594.012715785	5	attend	neutral	116	n/a	n/a	16	194.0127	5.0	att_neut	n/a	18	2	1	194.012715785
605.015804087	5	attend	neutral	107	n/a	n/a	17	205.0158	5.0	att_neut	n/a	18	2	1	205.015804087
617.014582516	5	suppress	negative	38	n/a	n/a	18	217.0146	5.0	suppr_neg	n/a	18	2	1	217.014582516
633.012934358	5	attend	neutral	103	n/a	n/a	19	233.0129	5.0	att_neut	n/a	18	2	1	233.012934358
648.015541016	5	attend	negative	2	n/a	n/a	20	248.0155	5.0	att_neg	n/a	18	2	1	248.015541016
659.001812497	5	suppress	negative	30	n/a	n/a	21	259.0018	5.0	suppr_neg	n/a	18	2	1	259.001812497
672.013035926	5	attend	neutral	118	n/a	n/a	22	272.013	5.0	att_neut	n/a	18	2	1	272.013035926
685.007487209	5	attend	neutral	102	n/a	n/a	23	285.0075	5.0	att_neut	n/a	18	2	1	285.007487209
697.006324524	5	suppress	negative	21	n/a	n/a	24	297.0063	5.0	suppr_neg	n/a	18	2	1	297.006324524
709.004899259	5	attend	negative	5	n/a	n/a	25	309.0049	5.0	att_neg	n/a	18	2	1	309.004899259
720.008068937	5	suppress	negative	24	n/a	n/a	26	320.0081	5.0	suppr_neg	n/a	18	2	1	320.008068937
739.010172808	5	suppress	negative	37	n/a	n/a	27	339.0102	5.0	suppr_neg	n/a	18	2	1	339.010172808
753.017115227	5	attend	negative	9	n/a	n/a	28	353.0171	5.0	att_neg	n/a	18	2	1	353.017115227
767.007320363	5	attend	negative	6	n/a	n/a	29	367.0073	5.0	att_neg	n/a	18	2	1	367.007320363
780.001828654	5	attend	neutral	109	n/a	n/a	30	380.0018	5.0	att_neut	n/a	18	2	1	380.001828654
